File: R/rHDPE_App/app/www/Output/TGA/Features/Features.csv
,TGA_Residue,TGA_Temp_40-60,TGA_Temp_60-80,TGA_Temp_80-100,TGA_Temp_100-120,TGA_Temp_120-140,TGA_Temp_140-160,TGA_Temp_160-180,TGA_Temp_180-200,TGA_Temp_200-220,TGA_Temp_220-240,TGA_Temp_240-260,TGA_Temp_260-280,TGA_Temp_280-300,TGA_Temp_300-320,TGA_Temp_320-340,TGA_Temp_340-360,TGA_Temp_360-380,TGA_Temp_380-400,TGA_Temp_400-420,TGA_Temp_420-440,TGA_Temp_440-460,TGA_Temp_460-480,TGA_Temp_480-500,TGA_Temp_500-520,TGA_Temp_520-540,TGA_Temp_540-560,TGA_Temp_560-580,TGA_Temp_580-600
0,0.089,-0.00116579,-0.000807856,-0.000415926,-8.44849e-05,0.000105981,0.00137625,0.00137275,0.00173269,0.00199464,0.0022456,0.00258304,0.00305295,0.00339689,0.00367384,0.00410377,0.00544003,0.00956329,0.0247086,0.0731184,0.276714,1.27396,3.05007,0.259339,0.000155472,0.000133476,0.000154472,0.000217961,0.000299946
1,0.1,-0.0011348,-0.00103182,-0.0005579,-0.000131976,-5.599e-05,0.00134526,0.00126377,0.0016557,0.00195415,0.00217061,0.00251955,0.00297747,0.00332841,0.00360286,0.00398679,0.00463017,0.00638836,0.0152203,0.0396099,0.141373,0.718771,2.84316,1.20475,0.000427424,-0.000100482,5.44903e-05,3.09945e-05,-0.0
2,1.692,-0.0011068,-0.000758365,-0.000344438,9.79825e-05,0.000439921,0.00182617,0.00213362,0.00264803,0.00301646,0.0033559,0.00370734,0.00413976,0.00453619,0.00486763,0.00543203,0.00676129,0.0116119,0.0303936,0.0988938,0.367741,1.64441,2.64791,0.0734154,0.000123978,0.000190966,0.000240957,0.000760864,0.000549902
3,1.691,-0.00119479,-0.000884842,-0.000373433,5.19907e-05,0.000192466,0.00171769,0.00204413,0.00262953,0.00312994,0.00343489,0.00370384,0.00409527,0.0044787,0.00489912,0.00522757,0.00583246,0.00756315,0.0163821,0.0407852,0.1654,0.696475,2.51656,1.43218,0.00129577,0.000105981,0.000195465,0.000238457,0.000361935
4,1.747,-0.00145724,-0.000998322,-0.000512908,-2.44956e-05,0.000421925,0.0016527,0.00175519,0.00218361,0.00260403,0.00301346,0.00340339,0.0039073,0.00431523,0.00462067,0.0050526,0.00604542,0.0089679,0.0195565,0.0491397,0.22835,1.00813,2.96771,0.595558,0.000177468,0.00011198,7.69862e-05,0.000289948,0.000633887
5,1.82,-0.00119529,-0.000871344,-0.000493912,-0.000106981,-2.29959e-05,0.00105231,0.000877343,0.0011058,0.00130577,0.00146224,0.00171669,0.00195165,0.00229909,0.00268602,0.00327542,0.00426524,0.00718422,0.0187591,0.0599378,0.280106,1.27377,2.99538,0.255077,-1.24978e-05,3.84931e-05,0.000207963,0.000413426,0.000249955
6,1.698,-0.00187816,-0.00149073,-0.000745867,-0.000578897,-0.000316443,0.00155422,0.00131926,0.00154422,0.00160121,0.00165021,0.00163171,0.0016732,0.00215312,0.00259554,0.00307495,0.00387931,0.00610091,0.0144529,0.0402148,0.165298,0.731741,2.76383,1.17759,0.00033644,-6.79879e-05,-6.39886e-05,-2.59954e-05,9.99821e-05
7,1.718,-0.0016882,-0.00122278,-0.000721371,-0.000268952,-5.599e-05,0.00117679,0.000865345,0.00108881,0.00131277,0.00145924,0.00161621,0.00191716,0.0022641,0.00266352,0.00321493,0.00401378,0.00631237,0.0148868,0.0435257,0.191138,0.948583,3.06738,0.625223,0.000127477,0.000125478,0.000248956,0.000639386,0.00078186
8,3.741,-0.00129127,-0.000849848,-0.000433923,-9.99821e-06,-0.000137975,0.00119429,0.000883842,0.00134126,0.00182467,0.00217761,0.00259504,0.00348988,0.00536504,0.00759614,0.00869945,0.00740018,0.0089514,0.0203479,0.0615675,0.272142,1.32197,2.82459,0.263991,-5.19907e-05,-7.94858e-05,8.59846e-05,0.000562899,0.000831851
9,3.718,-0.00150073,-0.00108781,-0.000586395,-0.000185967,-0.000322442,0.0011088,0.00050341,0.00083985,0.00121078,0.00163621,0.00209313,0.00297247,0.0044957,0.00660582,0.00864446,0.00868645,0.00909238,0.0172699,0.042133,0.201318,1.02829,2.9572,0.526006,0.000140975,-0.000177968,-0.00027745,-0.000399429,-0.000329941
10,3.737,-0.00137775,-0.000947331,-0.000471916,-7.54865e-05,-0.000202464,0.00106481,0.000712373,0.0010993,0.00156572,0.00190816,0.00244506,0.00330291,0.00489213,0.00706774,0.00858897,0.00817354,0.0089839,0.0160731,0.0409627,0.226353,1.12789,2.94455,0.411196,0.000131976,2.54954e-05,0.000207463,0.000516408,0.000811855
11,1.107,-0.000432923,-0.000387931,-0.000100482,0.000229459,0.000480414,0.00207413,0.00262903,0.00344738,0.0039338,0.00409327,0.00419175,0.00440421,0.00467017,0.00488213,0.00515758,0.00566999,0.00882442,0.0204349,0.0635946,0.250567,1.19064,3.00681,0.356795,0.000194965,0.000129977,0.000265952,0.000714872,0.00126777
12,1.198,-0.00136926,-0.000961328,-0.000463417,-4.39921e-05,0.000488413,0.00164021,0.00188216,0.00248356,0.00302646,0.00347388,0.00383681,0.00422275,0.00459568,0.00487913,0.00513458,0.00576247,0.00808806,0.0163781,0.0442826,0.202677,0.994701,3.0343,0.601112,0.000234458,0.000145474,0.00028145,0.000722871,0.000979825
13,0.166,-0.00107381,-0.000758365,-0.000351437,-2.59954e-05,0.000248956,0.00144624,0.0016957,0.00240857,0.00291148,0.00329491,0.00350937,0.00378332,0.00401878,0.00436122,0.00477065,0.00596343,0.00924185,0.0202934,0.058976,0.259444,1.36517,3.09201,0.152102,-0.000275951,6.74879e-05,8.34851e-05,8.99839e-06,0.000177968
14,0.073,0.000305945,-0.00022296,-8.64846e-05,0.00022396,0.00050291,0.00213562,0.00259504,0.00349538,0.00406177,0.00431723,0.0044712,0.00483564,0.00513208,0.00525356,0.00550652,0.00631187,0.0105016,0.0257244,0.0711288,0.295087,1.42181,2.95164,0.169161,0.000744367,0.000791859,0.000695376,0.000601393,0.000675879
15,0.787,-0.000793358,-0.000490412,-7.39868e-05,0.000237957,0.000701875,0.00160971,0.0011193,0.00160721,0.00205963,0.00239807,0.00267652,0.00304246,0.00359436,0.00434272,0.00565499,0.00777211,0.0115874,0.0281545,0.109386,0.279306,1.36916,3.01159,0.115774,2.49955e-06,-3.29941e-05,0.00011048,0.000309445,0.000693876
16,1.837,-0.00147724,-0.00103931,-0.000482914,-1.54972e-05,0.000712873,0.00192066,0.00258654,0.0033424,0.00385531,0.00406427,0.00426074,0.0044622,0.00471866,0.00498761,0.00536204,0.0067283,0.0108771,0.0258889,0.0907453,0.347076,1.54117,2.73503,0.10571,0.000107981,0.000284449,0.00173219,0.00440871,0.00532505
17,1.035,-0.000873844,-0.000555901,-0.000194965,0.000238457,0.000716872,0.00208313,0.00246906,0.00301946,0.00346338,0.00379932,0.00406127,0.00454069,0.00522307,0.00636136,0.00886192,0.0123833,0.0176234,0.0304191,0.0710913,0.282903,1.26719,2.87732,0.338695,0.000769862,0.00135476,0.00146324,0.00246356,0.00360936
18,1.023,-0.00118979,-0.000805356,-0.000252955,0.00011198,0.000483414,0.00153323,0.00156072,0.00199764,0.00258754,0.00339839,0.00432923,0.00527506,0.00624039,0.00702325,0.00773112,0.00901139,0.0115194,0.0218946,0.0780586,0.356508,1.50923,2.77383,0.144379,0.000463417,0.000522407,0.00156622,0.00192766,0.00198964
19,0.328,-0.0011013,-0.000806856,-0.000462417,-0.000179468,-0.000157472,0.00104481,0.00104981,0.00151173,0.00197865,0.00239857,0.00283099,0.00330391,0.00388231,0.00454819,0.00526506,0.00621039,0.00843049,0.0154957,0.0376028,0.173645,0.891041,3.03064,0.79649,6.54883e-05,0.000121978,7.44867e-05,0.000152473,0.000121978
20,0.955,-0.000824353,-0.000639886,-0.000268452,6.89877e-05,0.000301946,0.00147224,0.00157622,0.00215062,0.00266352,0.00312944,0.00361036,0.00416176,0.00479014,0.00572248,0.00733819,0.0117779,0.0198355,0.0303356,0.0681583,0.24752,1.02019,2.85521,0.661488,0.000442921,0.000713373,0.000853348,0.000530905,0.00104981
21,0.857,-0.00138575,-0.000971826,-0.000470416,-7.99857e-05,0.00016997,0.00177268,0.00214762,0.00285999,0.0033679,0.00378882,0.00459718,0.00597193,0.0067208,0.00737218,0.00835201,0.0095378,0.0112235,0.0178488,0.0411367,0.199164,1.04535,2.99674,0.591236,0.000177468,0.000128977,0.000267452,0.000812855,0.0011318
22,0.101,-0.000942332,-0.000861846,-0.000475415,-7.44867e-05,4.89912e-05,0.00129527,0.000771862,0.000944331,0.00114879,0.00144724,0.00171969,0.00202464,0.00245156,0.002796,0.00331041,0.00403128,0.00655483,0.0155507,0.0426009,0.199903,1.07676,3.09376,0.539712,-6.19889e-05,-4.99823e-15,0.000185967,0.000325442,0.000215961
23,0.104,-0.00152873,-0.0011238,-0.000665881,-0.000256954,7.69862e-05,0.00105731,0.000718372,0.00083935,0.000985324,0.00119779,0.00149823,0.00197865,0.00252205,0.00302846,0.00349987,0.00419925,0.00719072,0.0187467,0.0463972,0.187428,1.22384,3.25754,0.237959,-0.000163471,-0.000124478,-9.99821e-05,-2.69952e-05,-0.000209963
24,0.142,-0.00149723,-0.0011138,-0.000685878,-0.000341939,-0.000256954,0.000878843,0.000322942,0.000328441,0.00039093,0.000444921,0.000484913,0.000622889,0.000816854,0.00106881,0.00140125,0.00205813,0.0039028,0.0102542,0.0289228,0.129386,0.891477,3.23436,0.691131,-4.84913e-05,-0.0,4.99911e-05,4.99911e-05,-0.0
25,0.103,-0.00148074,-0.0011453,-0.000630387,-8.3985e-05,0.00022396,0.00132176,0.000591894,0.000365435,0.000439921,0.000636886,0.000701375,0.000880343,0.00105831,0.00136476,0.0016887,0.00231009,0.00437822,0.0117239,0.0374933,0.199343,1.28267,3.23011,0.223882,0.000126477,-0.000105981,-0.000128977,-0.000178968,-0.000363935
26,1.587,-0.00128527,-0.000844849,-0.000430923,-4.54919e-05,0.000232458,0.00152073,0.00138575,0.00173919,0.00205313,0.00228609,0.00268402,0.00321493,0.00385581,0.00521357,0.00802357,0.0136461,0.013739,0.0176159,0.0388831,0.220347,1.11719,2.83442,0.632209,0.000493412,0.000352437,0.00061689,0.00107431,0.00196365
27,1.524,-0.00195165,-0.00152123,-0.000769863,-0.000134976,0.00089434,0.00189116,0.00241257,0.00290648,0.00318843,0.0033674,0.00360486,0.0039383,0.00427724,0.00536954,0.00755015,0.00811005,0.00899339,0.0179853,0.0448045,0.250461,1.34917,2.87404,0.333155,0.00033644,0.000458918,0.00061739,0.00162421,0.00319943
28,0.107,-0.00147374,-0.0011193,-0.000687877,-0.000346438,-0.000293948,0.000971826,0.00050341,0.000695876,0.00084135,0.00100332,0.00129127,0.0016592,0.00210262,0.00258954,0.00296197,0.00348738,0.00594044,0.0151063,0.0397399,0.140318,0.872642,3.08758,0.821761,-7.89859e-05,-0.000137975,-0.000232458,-0.000487413,-0.000749866
29,0.06,-0.00174719,-0.00126527,-0.000638386,4.59918e-05,4.79914e-05,0.00106081,0.000542903,0.000735869,0.000870345,0.00106781,0.00137525,0.00178768,0.0022276,0.002796,0.00306645,0.00410377,0.00719471,0.0175649,0.047785,0.17244,0.94954,3.24785,0.540975,-0.000138475,-8.99839e-06,-0.000201464,-2.04963e-05,-0.000145974
30,0.954,-0.00135576,-0.000995322,-0.000564899,-9.89823e-05,0.000215462,0.00190016,0.00244356,0.0033609,0.00409227,0.0044957,0.00477065,0.00525456,0.00564199,0.00585895,0.00640536,0.00698925,0.008407,0.0130622,0.0269132,0.132889,0.825646,2.77279,1.12204,0.00134526,0.000388431,0.000494912,0.000569398,0.000655883
31,0.916,-0.00180218,-0.00127877,-0.000602392,-0.000137475,0.000482914,0.00159522,0.0022476,0.00311444,0.00377333,0.00426574,0.00467467,0.00523507,0.005587,0.00570798,0.0061369,0.00689877,0.00887441,0.0147609,0.0355611,0.22389,1.29944,2.99425,0.331391,0.000264453,0.000340939,0.000348438,0.0005624,0.000991823
32,1.36,-0.00120079,-0.000855847,-0.000420425,7.14872e-05,0.000406927,0.00183867,0.00190366,0.00236058,0.00269352,0.00295947,0.00316144,0.00340639,0.00380682,0.0044637,0.00565349,0.00819254,0.011289,0.0145879,0.0200449,0.0434997,0.46014,2.696,1.64272,0.00284599,0.000668881,0.000906838,0.00116929,0.00149773
33,1.191,-0.0016977,-0.00119429,-0.000549902,-5.09909e-05,0.000773362,0.00183967,0.00220661,0.00261403,0.00294097,0.00312094,0.00323192,0.00350687,0.0039353,0.00451319,0.00575897,0.00818704,0.0102547,0.0111205,0.0138305,0.0377268,0.702229,3.3924,0.733264,0.000456418,0.000408427,0.00044842,0.000632387,0.00126777
34,1.815,-0.0011303,-0.00083735,-0.000411926,-3.09945e-05,0.00016597,0.0016747,0.00207513,0.00293898,0.00352737,0.00378682,0.0039448,0.00420375,0.00439971,0.00468516,0.00521457,0.00581046,0.0067238,0.0124533,0.0307915,0.16698,0.870772,2.69643,1.08151,0.0022511,0.000342439,0.000552901,0.000696376,0.000995822
35,1.722,-0.00136326,-0.000934833,-0.000394929,5.89895e-05,0.000651384,0.00164371,0.00196315,0.00253955,0.00294447,0.00322192,0.00356436,0.00406377,0.00439671,0.00489213,0.00539904,0.00654833,0.00886742,0.0163926,0.0432673,0.261442,1.29131,2.87407,0.377358,0.000773362,0.000585395,0.000716372,0.000828352,0.00149773
36,2.143,-0.00129777,-0.000929834,-0.000492412,6.99875e-06,0.000332941,0.00171019,0.00200664,0.00306245,0.00385931,0.00428723,0.00441671,0.0045042,0.00473565,0.00533655,0.00607492,0.00715022,0.00909138,0.014222,0.0311844,0.161182,0.989829,2.73328,0.903981,0.00264703,0.000655383,0.000771362,0.0011423,0.0022376
37,2.129,-0.00142575,-0.000993822,-0.000467417,7.54865e-05,0.000516908,0.00178168,0.00229659,0.00328791,0.00400978,0.00431673,0.0045012,0.00469366,0.00514008,0.00577247,0.00652333,0.00766413,0.00965478,0.0158767,0.0367194,0.223544,1.29296,2.83778,0.423916,0.000771362,0.000930334,0.00109131,0.0022331,0.00436722
38,0.038,-0.00121278,-0.000939832,-0.000639886,-0.000377433,-0.000356436,0.000622889,0.000192966,0.000246456,0.000302446,0.000376933,0.000473915,0.000605392,0.000773362,0.000970327,0.00125228,0.00199514,0.00407977,0.0124708,0.0425109,0.183182,1.09123,3.28004,0.382035,-4.64917e-05,-6.1489e-05,-8.49848e-05,-5.29905e-05,-9.99821e-05
39,0.091,-0.00140925,-0.0011353,-0.000701375,-0.00028245,-0.000180968,0.00084135,0.00028245,0.000395429,0.000512908,0.000295447,0.000421425,0.000913837,0.00108481,0.00118779,0.00136326,0.00184417,0.00319643,0.00816304,0.024997,0.10912,0.804046,3.08549,0.9581,4.64917e-05,-2.84949e-05,-1.99964e-06,-0.000138475,-0.000203964
40,0.091,-0.00140475,-0.00105231,-0.00066988,-0.00033844,-0.000172969,0.00084035,0.00033694,0.000294947,0.000321943,0.00039293,0.000499411,0.000644385,0.000807356,0.000985324,0.00120928,0.00175319,0.00326542,0.00910387,0.0276166,0.1159,0.811697,3.03792,0.987471,-4.24924e-05,-0.000118979,-0.00011448,-0.00011348,-0.000123978