File: R/rHDPE_App/app/www/Output/TGA/Mean_Data/Means.csv
100.025,100.025,100.029,100.029,100.026,100.043,100.015,100.008,100.02,100.01,100.013,100.031,100.012,100.017,100.009,100.022,100.04,100.016,100.02,100.024,100.028,100.023,100.028,100.041
100.031,100.032,100.038,100.035,100.029,100.045,100.023,100.019,100.031,100.017,100.024,100.037,100.019,100.027,100.015,100.036,100.046,100.026,100.032,100.032,100.035,100.031,100.035,100.046
100.035,100.035,100.043,100.04,100.031,100.047,100.027,100.023,100.036,100.02,100.029,100.041,100.024,100.033,100.016,100.043,100.049,100.037,100.039,100.037,100.041,100.035,100.04,100.049
100.038,100.039,100.047,100.043,100.034,100.049,100.029,100.026,100.04,100.022,100.032,100.044,100.026,100.037,100.017,100.048,100.052,100.043,100.043,100.041,100.044,100.038,100.043,100.052
100.041,100.042,100.051,100.046,100.034,100.051,100.031,100.028,100.043,100.024,100.035,100.047,100.028,100.041,100.018,100.051,100.056,100.049,100.048,100.045,100.049,100.041,100.047,100.054
100.044,100.045,100.055,100.049,100.036,100.053,100.033,100.03,100.047,100.027,100.038,100.049,100.03,100.044,100.019,100.055,100.059,100.052,100.051,100.048,100.051,100.043,100.05,100.057
100.046,100.048,100.058,100.052,100.038,100.055,100.034,100.032,100.05,100.028,100.041,100.051,100.032,100.047,100.02,100.058,100.062,100.055,100.055,100.052,100.055,100.046,100.053,100.06
100.049,100.05,100.062,100.055,100.04,100.057,100.035,100.033,100.053,100.03,100.043,100.053,100.034,100.05,100.022,100.061,100.066,100.059,100.058,100.055,100.058,100.049,100.057,100.063
100.052,100.053,100.065,100.059,100.042,100.06,100.037,100.035,100.056,100.032,100.046,100.055,100.036,100.053,100.024,100.065,100.069,100.062,100.061,100.058,100.061,100.052,100.06,100.066
100.055,100.056,100.068,100.062,100.043,100.063,100.037,100.037,100.059,100.034,100.048,100.058,100.039,100.056,100.026,100.068,100.072,100.066,100.065,100.062,100.064,100.055,100.062,100.069
100.057,100.059,100.072,100.065,100.046,100.065,100.036,100.038,100.063,100.036,100.051,100.06,100.04,100.059,100.029,100.071,100.075,100.069,100.069,100.066,100.067,100.057,100.066,100.072
100.059,100.061,100.075,100.068,100.047,100.067,100.034,100.04,100.066,100.038,100.053,100.062,100.041,100.062,100.031,100.075,100.079,100.073,100.072,100.069,100.07,100.06,100.069,100.075
100.061,100.064,100.078,100.07,100.049,100.069,100.031,100.042,100.069,100.039,100.056,100.065,100.043,100.065,100.033,100.078,100.082,100.076,100.076,100.072,100.073,100.062,100.072,100.078
100.064,100.066,100.082,100.073,100.052,100.071,100.028,100.044,100.072,100.041,100.058,100.068,100.044,100.067,100.035,100.081,100.085,100.079,100.079,100.075,100.076,100.065,100.073,100.08
100.066,100.068,100.085,100.076,100.053,100.073,100.025,100.045,100.074,100.043,100.06,100.07,100.046,100.07,100.037,100.083,100.087,100.082,100.082,100.079,100.079,100.067,100.076,100.083
100.067,100.071,100.088,100.078,100.055,100.075,100.024,100.046,100.077,100.044,100.062,100.072,100.047,100.072,100.039,100.086,100.09,100.085,100.085,100.081,100.082,100.07,100.079,100.085
100.07,100.073,100.091,100.08,100.057,100.077,100.024,100.047,100.08,100.046,100.065,100.073,100.049,100.075,100.041,100.089,100.093,100.088,100.088,100.083,100.084,100.072,100.081,100.088
100.072,100.075,100.093,100.083,100.058,100.079,100.024,100.048,100.082,100.048,100.067,100.075,100.05,100.077,100.043,100.092,100.095,100.091,100.091,100.087,100.087,100.075,100.084,100.09
100.074,100.077,100.096,100.085,100.061,100.081,100.026,100.05,100.085,100.049,100.068,100.077,100.052,100.079,100.045,100.094,100.098,100.094,100.093,100.089,100.088,100.076,100.085,100.093
100.076,100.079,100.099,100.087,100.062,100.082,100.028,100.051,100.087,100.05,100.07,100.079,100.054,100.081,100.047,100.097,100.1,100.096,100.096,100.091,100.091,100.079,100.088,100.095
100.078,100.081,100.101,100.089,100.064,100.083,100.028,100.052,100.089,100.051,100.072,100.081,100.055,100.083,100.049,100.099,100.103,100.099,100.099,100.094,100.093,100.08,100.09,100.097
100.079,100.082,100.104,100.091,100.064,100.085,100.029,100.052,100.091,100.052,100.073,100.082,100.056,100.085,100.051,100.101,100.105,100.101,100.101,100.096,100.096,100.082,100.091,100.099
100.082,100.084,100.106,100.093,100.066,100.087,100.03,100.054,100.093,100.053,100.075,100.084,100.057,100.087,100.052,100.103,100.107,100.103,100.103,100.099,100.097,100.083,100.094,100.101
100.084,100.086,100.108,100.094,100.067,100.088,100.03,100.054,100.095,100.054,100.076,100.085,100.058,100.089,100.054,100.106,100.109,100.105,100.105,100.1,100.099,100.085,100.096,100.103
100.085,100.087,100.11,100.096,100.067,100.089,100.031,100.055,100.096,100.054,100.077,100.087,100.059,100.09,100.055,100.107,100.111,100.108,100.107,100.102,100.1,100.086,100.097,100.104
100.087,100.088,100.111,100.098,100.069,100.09,100.031,100.056,100.098,100.055,100.078,100.088,100.06,100.092,100.057,100.109,100.113,100.109,100.109,100.103,100.102,100.087,100.097,100.106
100.088,100.09,100.113,100.099,100.07,100.091,100.031,100.056,100.099,100.056,100.079,100.089,100.061,100.093,100.058,100.111,100.115,100.111,100.111,100.105,100.103,100.088,100.1,100.108
100.089,100.091,100.115,100.1,100.07,100.092,100.032,100.056,100.1,100.056,100.08,100.09,100.062,100.094,100.059,100.112,100.117,100.112,100.112,100.106,100.105,100.09,100.1,100.11
100.091,100.092,100.117,100.101,100.071,100.093,100.032,100.056,100.101,100.057,100.081,100.091,100.063,100.095,100.061,100.114,100.118,100.114,100.114,100.108,100.106,100.091,100.102,100.111
100.091,100.093,100.118,100.102,100.072,100.094,100.032,100.057,100.102,100.057,100.082,100.092,100.063,100.096,100.061,100.115,100.119,100.115,100.115,100.109,100.107,100.091,100.103,100.112
100.092,100.093,100.119,100.103,100.072,100.094,100.032,100.057,100.103,100.058,100.082,100.093,100.063,100.097,100.062,100.117,100.121,100.116,100.117,100.111,100.108,100.093,100.104,100.114
100.093,100.094,100.12,100.104,100.073,100.095,100.032,100.057,100.104,100.058,100.082,100.094,100.064,100.098,100.063,100.118,100.121,100.117,100.118,100.111,100.109,100.093,100.105,100.115
100.094,100.094,100.121,100.105,100.073,100.096,100.032,100.056,100.105,100.058,100.082,100.095,100.064,100.099,100.064,100.119,100.123,100.118,100.118,100.112,100.109,100.094,100.105,100.116
100.094,100.095,100.122,100.106,100.073,100.096,100.033,100.056,100.106,100.058,100.082,100.095,100.064,100.099,100.064,100.12,100.124,100.118,100.12,100.113,100.109,100.094,100.106,100.117
100.095,100.095,100.123,100.106,100.073,100.096,100.032,100.056,100.106,100.058,100.082,100.096,100.065,100.1,100.065,100.121,100.124,100.119,100.121,100.114,100.11,100.094,100.106,100.118
100.095,100.096,100.124,100.107,100.073,100.096,100.032,100.056,100.106,100.058,100.082,100.097,100.065,100.1,100.066,100.122,100.125,100.12,100.121,100.115,100.111,100.094,100.106,100.119
100.096,100.096,100.125,100.107,100.073,100.097,100.032,100.056,100.106,100.057,100.082,100.097,100.065,100.1,100.066,100.122,100.126,100.12,100.121,100.115,100.111,100.094,100.106,100.12
100.096,100.096,100.126,100.107,100.073,100.097,100.031,100.056,100.106,100.057,100.082,100.097,100.065,100.101,100.066,100.123,100.126,100.12,100.121,100.115,100.111,100.094,100.106,100.121
100.096,100.096,100.126,100.107,100.073,100.097,100.031,100.055,100.106,100.057,100.082,100.098,100.065,100.1,100.066,100.124,100.126,100.121,100.122,100.115,100.111,100.094,100.106,100.122
100.096,100.095,100.126,100.107,100.073,100.097,100.03,100.054,100.106,100.056,100.082,100.098,100.064,100.1,100.066,100.124,100.127,100.121,100.122,100.115,100.111,100.094,100.106,100.122
100.096,100.095,100.127,100.107,100.073,100.097,100.029,100.054,100.106,100.055,100.081,100.098,100.064,100.101,100.066,100.124,100.127,100.121,100.123,100.115,100.11,100.094,100.106,100.123
100.097,100.095,100.127,100.108,100.073,100.097,100.029,100.053,100.106,100.054,100.081,100.099,100.064,100.101,100.066,100.125,100.127,100.121,100.123,100.115,100.11,100.094,100.106,100.123
100.097,100.094,100.128,100.107,100.072,100.097,100.028,100.052,100.106,100.054,100.08,100.099,100.063,100.101,100.067,100.125,100.127,100.121,100.121,100.115,100.109,100.094,100.106,100.124
100.097,100.094,100.129,100.107,100.071,100.096,100.028,100.051,100.106,100.053,100.08,100.099,100.063,100.101,100.066,100.125,100.128,100.121,100.123,100.115,100.109,100.094,100.105,100.124
100.097,100.094,100.13,100.107,100.071,100.096,100.027,100.051,100.106,100.053,100.079,100.099,100.063,100.101,100.066,100.126,100.128,100.121,100.123,100.115,100.109,100.093,100.104,100.125
100.097,100.093,100.13,100.107,100.07,100.096,100.027,100.05,100.106,100.052,100.079,100.1,100.062,100.101,100.066,100.126,100.129,100.121,100.123,100.115,100.109,100.093,100.104,100.125
100.097,100.093,100.131,100.107,100.07,100.096,100.026,100.049,100.106,100.051,100.078,100.1,100.062,100.101,100.066,100.127,100.129,100.121,100.123,100.115,100.109,100.093,100.104,100.126
100.097,100.094,100.131,100.108,100.07,100.096,100.026,100.048,100.106,100.05,100.078,100.1,100.061,100.101,100.067,100.128,100.13,100.121,100.124,100.115,100.109,100.093,100.103,100.127
100.098,100.093,100.132,100.109,100.07,100.096,100.026,100.047,100.106,100.049,100.077,100.101,100.061,100.101,100.068,100.129,100.13,100.12,100.125,100.115,100.109,100.093,100.103,100.128
100.098,100.093,100.133,100.11,100.07,100.096,100.026,100.046,100.106,100.048,100.077,100.102,100.061,100.101,100.068,100.13,100.13,100.12,100.126,100.115,100.109,100.092,100.103,100.129
100.099,100.092,100.134,100.111,100.069,100.096,100.026,100.045,100.104,100.047,100.077,100.102,100.061,100.101,100.069,100.129,100.131,100.118,100.126,100.114,100.107,100.091,100.102,100.13
100.099,100.091,100.134,100.112,100.067,100.095,100.024,100.043,100.099,100.045,100.076,100.103,100.06,100.1,100.069,100.128,100.131,100.115,100.127,100.113,100.103,100.09,100.1,100.13
100.098,100.089,100.133,100.112,100.064,100.093,100.021,100.041,100.093,100.042,100.073,100.103,100.058,100.099,100.068,100.126,100.13,100.111,100.127,100.11,100.1,100.087,100.098,100.131
100.096,100.086,100.131,100.112,100.059,100.091,100.015,100.036,100.088,100.037,100.068,100.103,100.056,100.097,100.064,100.122,100.128,100.107,100.125,100.106,100.095,100.084,100.095,100.13
100.092,100.082,100.128,100.111,100.055,100.087,100.01,100.03,100.084,100.031,100.063,100.101,100.053,100.093,100.059,100.118,100.124,100.103,100.122,100.103,100.091,100.081,100.091,100.127
100.088,100.078,100.124,100.109,100.05,100.082,100.005,100.025,100.08,100.026,100.059,100.098,100.049,100.089,100.055,100.114,100.12,100.098,100.118,100.1,100.086,100.076,100.086,100.123
100.084,100.074,100.12,100.105,100.046,100.079,100,100.02,100.077,100.021,100.056,100.094,100.045,100.084,100.051,100.111,100.116,100.094,100.115,100.096,100.082,100.073,100.082,100.12
100.081,100.07,100.117,100.1,100.043,100.076,99.997,100.017,100.073,100.017,100.054,100.091,100.041,100.079,100.048,100.109,100.113,100.09,100.112,100.091,100.078,100.069,100.078,100.118
100.078,100.066,100.114,100.096,100.039,100.073,99.993,100.014,100.069,100.013,100.051,100.088,100.038,100.076,100.046,100.108,100.112,100.087,100.11,100.088,100.075,100.065,100.075,100.116
100.076,100.063,100.112,100.094,100.035,100.07,99.988,100.011,100.065,100.01,100.048,100.086,100.035,100.072,100.044,100.106,100.11,100.084,100.108,100.084,100.071,100.061,100.071,100.115
100.073,100.059,100.11,100.092,100.032,100.068,99.983,100.009,100.062,100.005,100.045,100.084,100.033,100.069,100.042,100.105,100.109,100.081,100.106,100.081,100.067,100.058,100.068,100.114
100.071,100.056,100.108,100.09,100.028,100.065,99.979,100.007,100.057,100.001,100.042,100.083,100.03,100.065,100.041,100.104,100.107,100.078,100.106,100.077,100.064,100.055,100.065,100.114
100.069,100.052,100.106,100.089,100.024,100.062,99.975,100.005,100.053,99.997,100.039,100.081,100.027,100.062,100.039,100.103,100.106,100.075,100.105,100.073,100.061,100.052,100.061,100.114
100.067,100.049,100.104,100.088,100.02,100.06,99.97,100.003,100.048,99.993,100.036,100.08,100.024,100.058,100.037,100.101,100.105,100.072,100.103,100.069,100.057,100.049,100.058,100.113
100.064,100.045,100.102,100.087,100.016,100.056,99.965,100.001,100.043,99.988,100.033,100.078,100.022,100.054,100.036,100.1,100.104,100.067,100.103,100.065,100.053,100.044,100.055,100.113
100.061,100.041,100.1,100.086,100.011,100.053,99.96,99.999,100.038,99.983,100.03,100.076,100.019,100.05,100.034,100.098,100.103,100.064,100.102,100.061,100.049,100.04,100.05,100.112
100.059,100.037,100.098,100.084,100.007,100.05,99.955,99.997,100.033,99.978,100.027,100.074,100.016,100.046,100.033,100.097,100.102,100.059,100.101,100.056,100.044,100.037,100.046,100.111
100.056,100.033,100.096,100.083,100.002,100.046,99.95,99.994,100.028,99.973,100.024,100.071,100.013,100.041,100.031,100.095,100.101,100.055,100.1,100.051,100.04,100.032,100.041,100.111
100.053,100.028,100.094,100.081,99.9975,100.043,99.944,99.992,100.022,99.968,100.021,100.069,100.01,100.037,100.029,100.094,100.1,100.052,100.099,100.046,100.036,100.028,100.037,100.11
100.05,100.024,100.092,100.08,99.9925,100.039,99.938,99.989,100.016,99.962,100.017,100.067,100.005,100.032,100.028,100.092,100.099,100.047,100.097,100.04,100.031,100.023,100.031,100.11
100.046,100.02,100.089,100.078,99.987,100.035,99.932,99.987,100.01,99.956,100.014,100.064,100.001,100.027,100.026,100.091,100.099,100.043,100.096,100.034,100.026,100.019,100.026,100.109
100.043,100.015,100.087,100.076,99.9815,100.031,99.926,99.984,100.004,99.95,100.01,100.061,99.998,100.021,100.024,100.089,100.097,100.038,100.095,100.029,100.022,100.014,100.021,100.108
100.04,100.01,100.085,100.074,99.976,100.026,99.919,99.981,99.998,99.944,100.006,100.059,99.994,100.016,100.023,100.087,100.097,100.034,100.094,100.023,100.017,100.008,100.016,100.108
100.037,100.005,100.082,100.072,99.9705,100.022,99.913,99.978,99.992,99.938,100.002,100.056,99.99,100.011,100.021,100.086,100.096,100.03,100.092,100.017,100.013,100.004,100.01,100.107
100.034,100,100.079,100.07,99.965,100.017,99.906,99.975,99.985,99.932,99.998,100.053,99.986,100.005,100.019,100.084,100.095,100.025,100.091,100.01,100.007,99.998,100.003,100.107
100.031,99.9953,100.077,100.068,99.9585,100.012,99.899,99.972,99.978,99.926,99.994,100.05,99.982,99.999,100.017,100.082,100.094,100.02,100.09,100.004,100.002,99.9925,99.997,100.106
100.027,99.99,100.074,100.066,99.9525,100.007,99.891,99.969,99.971,99.92,99.99,100.047,99.977,99.993,100.016,100.08,100.094,100.016,100.088,99.998,99.997,99.987,99.99,100.105
100.023,99.9853,100.072,100.063,99.946,100.002,99.884,99.965,99.964,99.914,99.986,100.044,99.973,99.987,100.014,100.079,100.093,100.011,100.087,99.991,99.9915,99.981,99.9835,100.104
100.02,99.9797,100.069,100.061,99.9395,99.997,99.877,99.962,99.957,99.907,99.982,100.04,99.968,99.981,100.012,100.077,100.091,100.006,100.085,99.984,99.986,99.975,99.9765,100.104
100.016,99.974,100.066,100.059,99.933,99.991,99.868,99.958,99.949,99.9,99.977,100.037,99.963,99.975,100.009,100.075,100.091,100.001,100.083,99.9765,99.981,99.969,99.97,100.103
100.012,99.9683,100.064,100.056,99.9265,99.986,99.861,99.954,99.942,99.894,99.973,100.034,99.958,99.968,100.007,100.073,100.091,99.9955,100.082,99.969,99.9755,99.963,99.962,100.103
100.008,99.9627,100.061,100.053,99.9195,99.98,99.853,99.951,99.934,99.887,99.968,100.03,99.953,99.962,100.005,100.071,100.09,99.99,100.079,99.9615,99.97,99.9565,99.954,100.102
100.004,99.957,100.058,100.051,99.9125,99.974,99.845,99.947,99.927,99.88,99.963,100.026,99.947,99.955,100.002,100.07,100.09,99.985,100.079,99.9535,99.964,99.95,99.947,100.101
100.001,99.9513,100.055,100.048,99.9055,99.969,99.837,99.943,99.919,99.873,99.958,100.022,99.942,99.948,100,100.067,100.089,99.98,100.076,99.946,99.958,99.9435,99.939,100.1
99.9965,99.9453,100.052,100.044,99.8985,99.963,99.828,99.939,99.911,99.866,99.953,100.018,99.937,99.941,99.998,100.065,100.088,99.9745,100.075,99.9375,99.9525,99.937,99.931,100.1
99.9925,99.9393,100.05,100.041,99.8915,99.957,99.82,99.934,99.903,99.859,99.948,100.014,99.931,99.934,99.996,100.064,100.088,99.969,100.073,99.9295,99.9465,99.93,99.923,100.099
99.9885,99.933,100.047,100.038,99.884,99.951,99.811,99.93,99.894,99.852,99.942,100.01,99.926,99.927,99.993,100.061,100.087,99.9635,100.071,99.921,99.9405,99.9235,99.915,100.098
99.984,99.927,100.043,100.035,99.8765,99.945,99.802,99.926,99.886,99.844,99.937,100.006,99.92,99.92,99.991,100.059,100.085,99.958,100.069,99.913,99.9345,99.9165,99.906,100.097
99.9795,99.921,100.04,100.032,99.869,99.939,99.794,99.921,99.878,99.836,99.931,100.002,99.914,99.913,99.988,100.057,100.085,99.952,100.067,99.9045,99.929,99.9095,99.8975,100.096
99.9755,99.9143,100.037,100.028,99.8615,99.932,99.785,99.916,99.87,99.829,99.926,99.997,99.908,99.905,99.986,100.055,100.084,99.9465,100.066,99.896,99.923,99.9025,99.889,100.096
99.971,99.9077,100.034,100.025,99.854,99.925,99.776,99.912,99.861,99.822,99.919,99.993,99.903,99.898,99.983,100.053,100.082,99.9405,100.064,99.8875,99.916,99.895,99.8805,100.095
99.9665,99.9013,100.031,100.021,99.846,99.919,99.767,99.907,99.853,99.814,99.913,99.988,99.896,99.891,99.98,100.051,100.081,99.935,100.061,99.8785,99.91,99.8885,99.872,100.094
99.962,99.8947,100.028,100.017,99.8385,99.912,99.758,99.902,99.844,99.806,99.907,99.983,99.89,99.883,99.978,100.048,100.08,99.929,100.059,99.869,99.9045,99.881,99.8625,100.093
99.9575,99.888,100.025,100.013,99.8305,99.905,99.749,99.897,99.836,99.799,99.9,99.979,99.884,99.875,99.975,100.046,100.079,99.924,100.058,99.8605,99.898,99.874,99.8535,100.092
99.953,99.8813,100.021,100.01,99.823,99.899,99.74,99.892,99.827,99.791,99.894,99.974,99.878,99.868,99.972,100.044,100.078,99.918,100.055,99.8515,99.892,99.8665,99.8445,100.091
99.948,99.8747,100.018,100.006,99.815,99.892,99.731,99.887,99.819,99.783,99.887,99.969,99.871,99.86,99.969,100.041,100.076,99.912,100.053,99.842,99.885,99.8595,99.8355,100.09
99.944,99.8673,100.015,100.001,99.8075,99.885,99.722,99.882,99.811,99.775,99.88,99.964,99.865,99.852,99.966,100.039,100.076,99.9065,100.051,99.833,99.8785,99.852,99.826,100.09
99.939,99.8607,100.012,99.9977,99.799,99.877,99.713,99.877,99.802,99.767,99.872,99.958,99.858,99.844,99.963,100.036,100.074,99.9005,100.049,99.8235,99.872,99.8445,99.817,100.089
99.9345,99.8537,100.009,99.9933,99.7905,99.871,99.704,99.872,99.794,99.758,99.865,99.953,99.851,99.836,99.959,100.033,100.073,99.894,100.047,99.8145,99.8655,99.837,99.808,100.088
99.9295,99.8463,100.006,99.9887,99.783,99.863,99.695,99.867,99.785,99.75,99.857,99.948,99.844,99.827,99.956,100.03,100.072,99.888,100.044,99.8045,99.859,99.8295,99.799,100.087
99.9245,99.8393,100.002,99.9843,99.7745,99.856,99.685,99.862,99.776,99.742,99.848,99.943,99.837,99.819,99.953,100.028,100.071,99.8815,100.042,99.795,99.8525,99.822,99.7895,100.087
99.9195,99.8323,99.9987,99.9797,99.766,99.849,99.676,99.856,99.767,99.734,99.84,99.937,99.83,99.81,99.95,100.025,100.07,99.875,100.04,99.786,99.846,99.8145,99.781,100.088
99.9145,99.8247,99.9957,99.9757,99.758,99.842,99.667,99.851,99.758,99.725,99.832,99.932,99.823,99.801,99.946,100.022,100.069,99.869,100.037,99.776,99.84,99.807,99.772,100.087
99.9095,99.8177,99.992,99.9707,99.75,99.834,99.658,99.845,99.75,99.717,99.823,99.926,99.816,99.792,99.943,100.019,100.068,99.8625,100.034,99.7665,99.833,99.799,99.762,100.086
99.9045,99.8103,99.9887,99.966,99.7415,99.827,99.648,99.84,99.741,99.708,99.814,99.92,99.808,99.783,99.939,100.016,100.066,99.856,100.031,99.7565,99.826,99.791,99.753,100.084
99.8995,99.8023,99.985,99.9613,99.733,99.82,99.639,99.834,99.732,99.7,99.805,99.914,99.801,99.774,99.935,100.013,100.064,99.85,100.029,99.747,99.8195,99.783,99.7435,100.083
99.894,99.795,99.9817,99.9563,99.725,99.813,99.629,99.828,99.723,99.691,99.796,99.908,99.793,99.764,99.932,100.01,100.064,99.843,100.026,99.737,99.813,99.7755,99.7345,100.082
99.888,99.787,99.9777,99.9513,99.716,99.805,99.62,99.823,99.714,99.682,99.787,99.902,99.785,99.754,99.928,100.007,100.062,99.836,100.023,99.727,99.806,99.767,99.7245,100.081
99.883,99.779,99.9747,99.9457,99.7075,99.798,99.611,99.817,99.705,99.673,99.777,99.896,99.777,99.744,99.924,100.003,100.061,99.8295,100.02,99.7165,99.7995,99.7595,99.715,100.08
99.877,99.7713,99.971,99.94,99.699,99.79,99.601,99.811,99.696,99.666,99.767,99.889,99.769,99.733,99.92,100,100.06,99.8225,100.017,99.7065,99.7925,99.7515,99.7055,100.079
99.871,99.7633,99.9673,99.9343,99.69,99.782,99.591,99.805,99.687,99.657,99.757,99.883,99.761,99.721,99.917,99.996,100.059,99.8155,100.014,99.696,99.7855,99.743,99.696,100.077
99.865,99.7553,99.9637,99.9283,99.6815,99.774,99.581,99.799,99.677,99.648,99.747,99.876,99.753,99.71,99.913,99.992,100.057,99.808,100.01,99.6855,99.7785,99.7345,99.687,100.076
99.859,99.747,99.9603,99.9223,99.6725,99.767,99.571,99.793,99.668,99.638,99.736,99.87,99.744,99.698,99.908,99.989,100.056,99.8005,100.007,99.675,99.7715,99.726,99.677,100.074
99.853,99.739,99.9567,99.9163,99.6635,99.759,99.561,99.787,99.659,99.629,99.726,99.863,99.736,99.686,99.904,99.985,100.055,99.793,100.004,99.664,99.764,99.7175,99.6675,100.073
99.8465,99.7303,99.9527,99.9097,99.6545,99.751,99.551,99.78,99.649,99.619,99.715,99.856,99.727,99.673,99.9,99.981,100.052,99.787,100.001,99.653,99.757,99.7085,99.6575,100.072
99.8405,99.722,99.9487,99.9027,99.6455,99.743,99.541,99.774,99.64,99.61,99.704,99.849,99.718,99.66,99.896,99.977,100.051,99.7795,99.9965,99.642,99.75,99.7,99.6475,100.07
99.834,99.7133,99.9447,99.8957,99.6365,99.735,99.531,99.768,99.63,99.601,99.692,99.842,99.709,99.647,99.892,99.972,100.049,99.771,99.993,99.631,99.7425,99.691,99.638,100.069
99.8275,99.7043,99.9403,99.8883,99.6275,99.727,99.521,99.761,99.621,99.591,99.681,99.835,99.7,99.635,99.887,99.968,100.048,99.763,99.989,99.619,99.7355,99.682,99.629,100.067
99.8205,99.6957,99.936,99.8807,99.618,99.719,99.51,99.754,99.612,99.581,99.669,99.828,99.691,99.621,99.883,99.963,100.046,99.755,99.985,99.608,99.7275,99.6735,99.6195,100.065
99.8135,99.6867,99.9323,99.8723,99.6085,99.711,99.5,99.748,99.602,99.57,99.657,99.82,99.682,99.608,99.878,99.958,100.044,99.7475,99.9815,99.596,99.72,99.6645,99.6095,100.064
99.807,99.6773,99.9283,99.864,99.599,99.703,99.489,99.741,99.592,99.56,99.645,99.813,99.673,99.594,99.874,99.953,100.043,99.7395,99.977,99.585,99.7125,99.6555,99.599,100.062
99.8,99.6687,99.9237,99.8553,99.5895,99.694,99.478,99.734,99.583,99.55,99.632,99.805,99.663,99.58,99.869,99.949,100.041,99.7315,99.973,99.573,99.7045,99.646,99.5895,100.06
99.793,99.6597,99.9197,99.846,99.5795,99.686,99.468,99.727,99.573,99.539,99.62,99.797,99.654,99.566,99.864,99.944,100.039,99.7235,99.968,99.562,99.6965,99.637,99.5795,100.058
99.786,99.65,99.9147,99.836,99.57,99.678,99.457,99.719,99.563,99.529,99.607,99.789,99.643,99.552,99.859,99.938,100.037,99.7155,99.964,99.55,99.6885,99.628,99.569,100.057
99.779,99.641,99.91,99.826,99.5605,99.669,99.446,99.712,99.553,99.518,99.593,99.781,99.633,99.538,99.854,99.933,100.034,99.7065,99.9595,99.538,99.6805,99.6185,99.5585,100.055
99.772,99.6313,99.9053,99.8157,99.5505,99.66,99.435,99.704,99.543,99.507,99.58,99.773,99.623,99.524,99.848,99.928,100.033,99.6975,99.955,99.526,99.6725,99.6095,99.548,100.053
99.765,99.6217,99.9003,99.8047,99.5405,99.652,99.424,99.696,99.533,99.495,99.567,99.764,99.613,99.51,99.843,99.922,100.031,99.689,99.9505,99.5145,99.6645,99.6005,99.5375,100.051
99.7575,99.6127,99.8953,99.793,99.5305,99.644,99.414,99.688,99.523,99.484,99.553,99.756,99.603,99.496,99.837,99.917,100.029,99.6795,99.9455,99.5025,99.6555,99.591,99.527,100.049
99.7505,99.603,99.8903,99.7807,99.521,99.635,99.403,99.68,99.513,99.472,99.54,99.747,99.592,99.481,99.832,99.911,100.026,99.671,99.9405,99.4905,99.6475,99.5815,99.5165,100.047
99.7425,99.593,99.885,99.7683,99.511,99.626,99.392,99.672,99.503,99.46,99.525,99.738,99.581,99.466,99.826,99.905,100.025,99.6625,99.9355,99.4785,99.639,99.572,99.505,100.045
99.7355,99.5833,99.8797,99.755,99.501,99.617,99.381,99.664,99.493,99.448,99.511,99.729,99.57,99.451,99.821,99.899,100.022,99.6525,99.93,99.4665,99.63,99.5625,99.4945,100.043
99.728,99.5737,99.8747,99.7413,99.491,99.608,99.37,99.655,99.482,99.436,99.497,99.72,99.559,99.437,99.815,99.893,100.019,99.642,99.924,99.455,99.621,99.5525,99.483,100.041
99.7205,99.5637,99.869,99.7277,99.481,99.599,99.359,99.646,99.472,99.424,99.482,99.711,99.547,99.421,99.809,99.887,100.017,99.632,99.9185,99.4425,99.612,99.5425,99.472,100.039
99.713,99.5533,99.864,99.7133,99.4705,99.59,99.347,99.637,99.461,99.411,99.468,99.702,99.535,99.406,99.803,99.881,100.014,99.6215,99.9125,99.4305,99.603,99.533,99.46,100.036
99.7055,99.5437,99.8583,99.6983,99.46,99.581,99.336,99.628,99.451,99.398,99.452,99.692,99.523,99.391,99.797,99.874,100.013,99.61,99.907,99.4185,99.593,99.523,99.4485,100.034
99.698,99.533,99.8527,99.6827,99.45,99.571,99.326,99.619,99.44,99.384,99.438,99.682,99.511,99.375,99.792,99.868,100.01,99.599,99.9015,99.406,99.5835,99.5125,99.437,100.032
99.69,99.523,99.8467,99.6667,99.4395,99.562,99.315,99.609,99.43,99.37,99.423,99.672,99.498,99.359,99.786,99.862,100.007,99.5865,99.8955,99.394,99.5735,99.5025,99.4245,100.03
99.682,99.513,99.841,99.6503,99.429,99.553,99.304,99.599,99.419,99.355,99.408,99.662,99.486,99.343,99.78,99.855,100.004,99.574,99.89,99.382,99.5635,99.492,99.4125,100.028
99.674,99.5023,99.835,99.6333,99.4185,99.544,99.292,99.589,99.409,99.34,99.392,99.652,99.473,99.327,99.774,99.848,100.001,99.561,99.884,99.369,99.5535,99.481,99.4,100.025
99.666,99.492,99.829,99.616,99.408,99.534,99.281,99.58,99.398,99.324,99.377,99.642,99.459,99.31,99.767,99.841,99.998,99.548,99.8785,99.3565,99.543,99.471,99.388,100.023
99.658,99.4813,99.8223,99.5987,99.3975,99.525,99.27,99.569,99.387,99.308,99.361,99.631,99.445,99.294,99.76,99.834,99.9955,99.5345,99.8725,99.344,99.5325,99.46,99.375,100.02
99.6495,99.4707,99.8163,99.5807,99.387,99.515,99.259,99.558,99.376,99.292,99.346,99.621,99.431,99.277,99.754,99.827,99.9925,99.517,99.866,99.331,99.5215,99.4495,99.3625,100.018
99.6415,99.46,99.8097,99.5623,99.3765,99.505,99.247,99.546,99.365,99.274,99.33,99.61,99.416,99.259,99.747,99.819,99.989,99.501,99.86,99.318,99.5105,99.4385,99.3495,100.015
99.633,99.449,99.803,99.544,99.366,99.496,99.235,99.534,99.354,99.255,99.313,99.599,99.401,99.242,99.74,99.812,99.986,99.4845,99.854,99.305,99.499,99.4275,99.3365,100.012
99.6245,99.4383,99.796,99.5253,99.355,99.486,99.224,99.522,99.343,99.236,99.297,99.588,99.386,99.224,99.733,99.805,99.9825,99.4685,99.8475,99.2915,99.4865,99.416,99.3235,100.009
99.616,99.427,99.7893,99.5067,99.344,99.475,99.212,99.51,99.331,99.216,99.281,99.576,99.37,99.206,99.726,99.797,99.98,99.452,99.841,99.2785,99.474,99.405,99.309,100.007
99.607,99.4153,99.7823,99.4883,99.333,99.465,99.2,99.497,99.32,99.196,99.264,99.565,99.353,99.188,99.719,99.79,99.976,99.435,99.8345,99.265,99.461,99.393,99.2955,100.004
99.5985,99.404,99.7753,99.47,99.322,99.454,99.189,99.484,99.308,99.174,99.247,99.553,99.336,99.17,99.711,99.782,99.9725,99.4165,99.8275,99.2515,99.4475,99.3815,99.282,100.001
99.5895,99.3923,99.768,99.451,99.3105,99.443,99.177,99.47,99.296,99.153,99.23,99.541,99.318,99.151,99.704,99.774,99.9685,99.3975,99.821,99.237,99.4335,99.37,99.2675,99.9983
99.5795,99.3803,99.7603,99.433,99.299,99.432,99.165,99.456,99.283,99.131,99.212,99.529,99.299,99.132,99.696,99.766,99.965,99.3765,99.8135,99.223,99.4185,99.3575,99.253,99.995
99.5695,99.368,99.7523,99.4153,99.2875,99.42,99.152,99.441,99.271,99.108,99.194,99.517,99.28,99.113,99.689,99.758,99.9605,99.356,99.8065,99.209,99.4035,99.3455,99.2385,99.9917
99.56,99.3557,99.7447,99.3977,99.2765,99.409,99.14,99.426,99.258,99.084,99.176,99.504,99.259,99.093,99.681,99.75,99.9565,99.334,99.7995,99.1945,99.387,99.3325,99.2235,99.9883
99.5495,99.3433,99.7363,99.3803,99.2645,99.397,99.128,99.41,99.244,99.059,99.158,99.492,99.237,99.074,99.673,99.742,99.952,99.3115,99.792,99.1805,99.3705,99.32,99.208,99.985
99.539,99.3303,99.7277,99.3637,99.253,99.384,99.115,99.394,99.23,99.033,99.139,99.479,99.213,99.053,99.664,99.733,99.948,99.288,99.7835,99.1655,99.3535,99.3065,99.1925,99.981
99.5285,99.317,99.7193,99.3473,99.241,99.372,99.101,99.377,99.215,99.005,99.12,99.465,99.187,99.033,99.656,99.724,99.943,99.2645,99.7755,99.1505,99.3355,99.294,99.177,99.9767
99.517,99.3033,99.71,99.3313,99.2285,99.359,99.087,99.359,99.2,98.977,99.1,99.452,99.159,99.013,99.647,99.714,99.9385,99.2395,99.767,99.1355,99.3165,99.28,99.1605,99.9727
99.5055,99.289,99.701,99.315,99.216,99.345,99.073,99.341,99.185,98.948,99.08,99.438,99.128,98.992,99.638,99.705,99.933,99.214,99.758,99.121,99.2975,99.2665,99.144,99.9677
99.494,99.2747,99.691,99.2987,99.203,99.33,99.058,99.323,99.168,98.918,99.059,99.424,99.095,98.97,99.628,99.695,99.927,99.1885,99.749,99.1055,99.2775,99.2525,99.1275,99.9627
99.4815,99.2597,99.6807,99.2833,99.189,99.316,99.042,99.303,99.152,98.887,99.038,99.409,99.06,98.949,99.618,99.684,99.9215,99.1645,99.739,99.0905,99.257,99.2385,99.11,99.9577
99.4685,99.2443,99.6703,99.2663,99.1745,99.3,99.025,99.283,99.134,98.855,99.017,99.394,99.023,98.927,99.607,99.673,99.915,99.141,99.729,99.075,99.2355,99.224,99.0925,99.9523
99.455,99.228,99.6583,99.25,99.1595,99.284,99.007,99.262,99.115,98.822,98.994,99.378,98.984,98.905,99.595,99.662,99.9085,99.1185,99.718,99.0585,99.214,99.209,99.0745,99.9467
99.4405,99.2107,99.647,99.2323,99.1435,99.268,98.988,99.241,99.094,98.788,98.972,99.362,98.945,98.882,99.583,99.649,99.901,99.096,99.706,99.041,99.1915,99.1945,99.056,99.9403
99.4255,99.1927,99.6343,99.215,99.1265,99.249,98.967,99.218,99.073,98.752,98.949,99.345,98.905,98.859,99.571,99.635,99.893,99.074,99.693,99.0235,99.169,99.1785,99.0365,99.9337
99.409,99.1733,99.6207,99.196,99.109,99.228,98.945,99.195,99.05,98.715,98.925,99.327,98.863,98.836,99.557,99.62,99.8845,99.051,99.6795,99.005,99.146,99.1625,99.0165,99.926
99.391,99.1527,99.6057,99.177,99.0905,99.208,98.921,99.169,99.026,98.677,98.899,99.309,98.819,98.812,99.542,99.603,99.875,99.028,99.664,98.986,99.123,99.1455,98.9965,99.9183
99.3715,99.13,99.59,99.156,99.0695,99.186,98.895,99.142,98.999,98.636,98.873,99.289,98.774,98.787,99.526,99.585,99.8645,99.003,99.6485,98.966,99.0995,99.128,98.975,99.9093
99.35,99.1047,99.5727,99.134,99.048,99.162,98.867,99.111,98.97,98.593,98.846,99.268,98.726,98.761,99.509,99.565,99.8525,98.9775,99.6305,98.9455,99.0755,99.109,98.953,99.9
99.326,99.0773,99.5537,99.11,99.0245,99.136,98.837,99.079,98.939,98.547,98.817,99.246,98.677,98.734,99.49,99.543,99.84,98.9505,99.611,98.924,99.0505,99.0885,98.93,99.8887
99.299,99.047,99.5327,99.084,98.999,99.108,98.803,99.043,98.906,98.498,98.786,99.223,98.624,98.706,99.469,99.519,99.826,98.923,99.589,98.902,99.026,99.0675,98.906,99.8767
99.2695,99.0137,99.5097,99.0557,98.971,99.077,98.765,99.004,98.868,98.446,98.753,99.198,98.568,98.677,99.445,99.492,99.8105,98.8935,99.5645,98.8785,99.0005,99.0445,98.8805,99.8637
99.2365,98.976,99.4833,99.025,98.9405,99.042,98.724,98.96,98.827,98.39,98.716,99.17,98.511,98.645,99.419,99.462,99.793,98.862,99.5375,98.854,98.9745,99.019,98.8535,99.8487
99.2,98.9347,99.4543,98.9917,98.906,99.005,98.677,98.911,98.781,98.33,98.675,99.141,98.451,98.612,99.39,99.428,99.773,98.829,99.508,98.8275,98.948,98.9925,98.8255,99.8313
99.159,98.8887,99.4223,98.9547,98.869,98.964,98.623,98.857,98.73,98.267,98.632,99.109,98.388,98.576,99.359,99.39,99.751,98.792,99.4745,98.7995,98.9215,98.9625,98.795,99.812
99.1145,98.8387,99.3863,98.915,98.828,98.92,98.563,98.795,98.673,98.199,98.583,99.075,98.322,98.537,99.324,99.347,99.726,98.7525,99.438,98.7695,98.8935,98.9305,98.762,99.79
99.065,98.784,99.3457,98.8717,98.782,98.87,98.498,98.725,98.608,98.127,98.53,99.038,98.253,98.495,99.286,99.3,99.6985,98.7105,99.398,98.7365,98.866,98.8955,98.727,99.7647
99.0105,98.725,99.302,98.825,98.7325,98.815,98.427,98.645,98.536,98.052,98.472,98.998,98.18,98.449,99.244,99.247,99.668,98.6655,99.353,98.701,98.837,98.858,98.6895,99.736
98.9505,98.6597,99.2523,98.773,98.678,98.754,98.35,98.555,98.455,97.972,98.407,98.955,98.103,98.398,99.197,99.189,99.6335,98.616,99.304,98.6625,98.8075,98.817,98.6475,99.7037
98.8825,98.589,99.1973,98.716,98.6185,98.687,98.267,98.452,98.364,97.886,98.334,98.907,98.022,98.344,99.145,99.127,99.5955,98.5625,99.2485,98.6205,98.7775,98.7725,98.602,99.6663
98.8085,98.511,99.136,98.653,98.552,98.612,98.176,98.328,98.259,97.793,98.253,98.855,97.934,98.287,99.088,99.059,99.5525,98.5035,99.1865,98.5755,98.7465,98.723,98.5525,99.6247
98.7255,98.425,99.0677,98.5837,98.4785,98.53,98.077,98.169,98.142,97.695,98.16,98.797,97.839,98.225,99.024,98.984,99.5055,98.44,99.118,98.5255,98.7155,98.67,98.498,99.5773
98.6345,98.329,98.9923,98.5063,98.396,98.439,97.966,97.977,98.008,97.587,98.054,98.734,97.737,98.16,98.954,98.902,99.4515,98.37,99.043,98.472,98.6825,98.6115,98.439,99.5247
98.534,98.2207,98.9077,98.4193,98.304,98.335,97.845,97.755,97.855,97.466,97.931,98.664,97.626,98.088,98.875,98.813,99.3905,98.2925,98.9585,98.4135,98.649,98.5465,98.3765,99.465
98.422,98.091,98.8113,98.3223,98.198,98.22,97.71,97.505,97.679,97.333,97.789,98.588,97.5,98.007,98.788,98.716,99.3215,98.2075,98.8625,98.35,98.614,98.474,98.309,99.398
98.297,97.939,98.7027,98.213,98.068,98.088,97.555,97.229,97.474,97.183,97.619,98.502,97.325,97.914,98.689,98.608,99.2435,98.112,98.7585,98.28,98.5765,98.3905,98.2335,99.3233
98.151,97.767,98.5757,98.089,97.917,97.941,97.356,96.927,97.209,96.989,97.389,98.406,97.13,97.806,98.579,98.49,99.154,98.0055,98.6445,98.201,98.5375,98.2965,98.149,99.239
97.9735,97.572,98.424,97.9417,97.748,97.756,97.122,96.603,96.893,96.754,97.099,98.298,96.916,97.682,98.454,98.361,99.053,97.884,98.52,98.112,98.4965,98.1885,98.05,99.145
97.767,97.3467,98.2477,97.766,97.554,97.521,96.857,96.25,96.54,96.479,96.759,98.174,96.673,97.539,98.311,98.216,98.9375,97.745,98.383,98.0095,98.453,98.0595,97.938,99.04
97.5285,97.074,98.0443,97.5597,97.317,97.244,96.554,95.87,96.144,96.164,96.379,98.022,96.393,97.372,98.136,98.053,98.8045,97.576,98.232,97.89,98.4045,97.883,97.807,98.917
97.261,96.7657,97.8103,97.3073,97.0395,96.936,96.206,95.469,95.706,95.803,95.946,97.823,96.087,97.159,97.915,97.869,98.653,97.37,98.0635,97.7495,98.352,97.639,97.6395,98.77
96.9525,96.411,97.5287,96.9907,96.7225,96.602,95.787,95.039,95.214,95.391,95.447,97.587,95.699,96.893,97.635,97.638,98.466,97.115,97.8595,97.573,98.2945,97.383,97.4145,98.5997
96.594,96.0063,97.191,96.6063,96.358,96.216,95.319,94.585,94.656,94.918,94.871,97.304,95.279,96.576,97.305,97.358,98.231,96.7755,97.61,97.328,98.23,97.0795,97.132,98.3993
96.19,95.5417,96.7747,96.1603,95.934,95.76,94.782,94.089,94.009,94.347,94.207,96.973,94.814,96.216,96.894,97.034,97.9295,96.3295,97.3245,97.03,98.156,96.7235,96.7995,98.152
95.7325,94.9947,96.293,95.6367,95.4415,95.203,94.166,93.537,93.254,93.713,93.432,96.597,94.281,95.786,96.445,96.651,97.566,95.807,96.9985,96.6555,98.0725,96.2805,96.392,97.864
95.23,94.344,95.7417,95.02,94.863,94.516,93.446,92.891,92.385,93.005,92.525,96.132,93.629,95.271,95.931,96.18,97.1515,95.1515,96.627,96.159,97.98,95.7225,95.9315,97.5127
94.641,93.5683,95.0917,94.2923,94.1855,93.692,92.599,92.123,91.379,92.196,91.459,95.594,92.877,94.667,95.333,95.572,96.6395,94.3815,96.1865,95.544,97.871,95.036,95.3155,97.0863
93.9575,92.6667,94.345,93.45,93.3855,92.786,91.534,91.176,90.194,91.246,90.212,94.952,92.138,93.915,94.642,94.821,96.022,93.454,95.6195,94.7945,97.738,94.1815,94.5125,96.576
93.0965,91.6053,93.459,92.502,92.442,91.662,90.151,90.025,88.752,90.154,88.728,94.239,91.14,92.976,93.831,93.924,95.2425,92.3535,94.835,93.8835,97.565,93.1345,93.4725,95.9677
92.0365,90.3873,92.4233,91.36,91.324,90.295,88.574,88.652,87.051,88.855,87.003,93.394,90.029,91.943,92.766,92.862,94.113,91.031,93.87,92.805,97.289,91.8435,92.2605,95.1687
90.8175,88.9513,91.239,89.9283,89.992,88.662,86.744,86.966,85.047,87.283,84.997,92.401,88.709,90.699,91.439,91.461,92.687,89.4565,92.781,91.475,96.8845,90.377,90.864,94.121
89.422,87.2517,89.8377,88.2003,88.431,86.673,84.552,85.035,82.668,85.418,82.594,91.161,87.147,89.157,89.877,89.824,90.9735,87.591,91.504,89.963,96.393,88.876,89.15,92.8537
87.7145,85.3187,88.1867,86.1897,86.575,84.14,82.055,82.733,79.924,83.211,79.863,89.684,85.356,87.3,88.228,87.895,89.2275,85.3935,89.989,88.189,95.7195,87.127,87.113,91.302
85.743,83.0123,86.2047,83.759,84.375,81.197,79.113,80.005,76.666,80.558,76.75,87.899,83.246,85.11,85.963,85.501,86.9895,82.641,88.1005,85.995,94.6545,84.9425,84.797,89.455
83.3965,80.339,83.8487,80.9413,81.759,77.873,75.644,76.765,72.92,77.446,73.086,85.734,80.82,82.589,83.25,82.608,84.379,79.6535,86.0145,83.414,93.185,82.3715,81.9975,87.2997
80.465,77.1837,81.0573,77.629,78.6685,74.004,71.635,72.975,68.569,73.865,68.912,83.161,77.944,79.642,79.954,79.187,81.268,76.153,83.617,80.3255,91.288,79.2915,78.724,84.6247
77.072,73.5593,77.7393,73.7843,75.0185,69.509,67.023,68.342,63.602,69.566,64.077,80.085,74.669,76.259,76.269,74.988,77.7165,72.184,80.4765,76.7755,88.855,75.6815,74.9655,81.5017
73.164,69.3747,73.853,69.294,70.7345,64.436,61.819,62.703,57.959,64.75,58.58,76.441,70.857,72.169,72.232,69.766,73.444,67.683,76.606,72.608,85.803,71.525,70.6205,77.8257
68.642,64.589,69.3103,64.199,65.4795,58.395,55.764,56.134,51.551,59.336,52.399,72.214,66.453,67.422,67.471,62.951,68.402,62.6315,72.1695,67.8675,82.042,66.8385,65.721,73.5163
63.403,59.2347,64.1287,58.4173,59.742,51.44,49.066,48.593,44.599,53.317,45.988,67.288,61.414,61.979,61.932,55.242,62.5685,56.9315,66.9295,62.5695,77.473,61.536,60.2375,68.6557
57.3895,53.41,58.2357,51.8897,53.376,43.085,41.655,40.364,36.957,46.662,38.903,61.666,55.756,55.775,55.614,47.039,55.788,50.7085,60.3085,56.6685,72.048,55.7485,54.2425,62.8547
50.9565,47.0953,51.7443,44.8613,46.409,34.72,33.766,31.793,29.268,39.515,31.284,55.313,49.497,48.875,48.977,38.836,48.207,43.9675,53.0915,50.257,65.736,49.482,47.8185,56.2913
43.7635,40.577,44.662,37.1237,39.1595,26.366,25.711,23.348,21.596,32.145,23.882,48.262,42.603,41.96,41.717,30.352,40.087,36.9645,45.382,43.404,58.588,42.8515,41.1085,48.9923
36.049,33.9497,37.229,29.5943,31.5065,18.205,18.245,15.562,15.126,24.826,16.804,40.679,35.439,34.553,33.935,22.465,31.6095,29.905,37.8195,36.2625,50.785,36.0415,34.358,40.9927
28.312,27.5103,29.7143,22.3873,23.865,11.062,11.406,9.269,9.65,18.011,10.784,32.757,28.148,26.827,25.84,15.047,23.1725,22.9165,29.42,29.1055,42.605,29.27,27.695,32.5197
21.4075,21.5533,22.4473,16.379,16.818,5.615,6.231,4.875,5.753,12.093,6.266,24.752,21.215,19.68,17.95,8.589,15.4015,16.6745,21.464,22.2325,34.2565,22.822,21.457,24.008
15.237,16.269,15.877,11.6713,10.709,2.225,2.678,2.338,3.44,7.595,3.293,17.105,14.673,13.093,10.944,3.984,8.9635,11.309,14.254,15.9785,26.2925,16.9115,15.9145,16.2633
10.104,11.7013,10.492,8.08867,6.103,0.6870000,0.8990000,1.25,2.409,4.593,1.81,10.44,9.375,7.658,5.468,1.343,4.3465,7.22,8.1115,10.7825,19.0805,12.015,11.3635,9.60833
6.046,8.142,6.49867,5.79933,3.1985,0.2900000,0.3180000,0.9180000,2.16,2.751,1.317,5.223,5.283,3.832,2.084,0.3960000,1.616,4.493,3.6785,6.8365,13.049,8.166,7.863,4.60933
3.114,5.336,3.942,4.573,1.787,0.2180000,0.2160000,0.8550000,2.076,1.77,1.223,1.98,2.742,1.835,0.6050000,0.2160000,0.4685000,2.9195,1.2525,4.065,8.467,5.3985,5.4285,1.63567
1.2655,3.53233,2.55033,4.05967,1.342,0.1840000,0.1700000,0.8230000,2.04,1.38,1.171,0.6930000,1.526,1.127,0.2570000,0.1410000,0.1925000,2.16,0.3490000,2.354,5.239,3.635,3.886,0.4050000
0.4095000,2.46,1.982,3.88333,1.2545,0.1710000,0.1520000,0.8100000,2.027,1.282,1.149,0.4370000,1.152,0.9900000,0.1700000,0.1090000,0.1470000,1.8255,0.1535000,1.495,3.168,2.6435,3.0215,0.1540000
0.1810000,1.94467,1.82667,3.80533,1.2155,0.1670000,0.1450000,0.8050000,2.022,1.228,1.14,0.3780000,1.079,0.9320000,0.1310000,0.0980000,0.1280000,1.7125,0.0990000,1.1505,2.0235,2.1425,2.5805,0.1000000
0.1375000,1.78567,1.78767,3.76433,1.1995,0.1660000,0.1410000,0.8040000,2.02,1.206,1.136,0.3500000,1.041,0.9090000,0.1180000,0.0940000,0.1210000,1.667,0.0755000,1.0475,1.5335,1.9415,2.386,0.0770000
0.1150000,1.75533,1.76867,3.74733,1.194,0.1660000,0.1390000,0.8030000,2.019,1.197,1.133,0.3410000,1.025,0.8990000,0.1130000,0.0930000,0.1190000,1.647,0.0675000,1.007,1.4075,1.884,2.3185,0.0690000
0.1070000,1.74133,1.762,3.741,1.1915,0.1650000,0.1370000,0.8030000,2.019,1.192,1.131,0.3370000,1.018,0.8960000,0.1120000,0.0930000,0.1185000,1.639,0.0650000,0.9875000,1.3695,1.853,2.2795,0.0663333
0.1035000,1.73533,1.75933,3.73867,1.19,0.1660000,0.1360000,0.8030000,2.018,1.19,1.13,0.3360000,1.014,0.8950000,0.1110000,0.0930000,0.1195000,1.636,0.0645000,0.9795000,1.3505,1.838,2.26,0.0656667
0.1020000,1.73333,1.75833,3.73733,1.1895,0.1650000,0.1350000,0.8030000,2.018,1.188,1.128,0.3350000,1.012,0.8940000,0.1110000,0.0930000,0.1170000,1.635,0.0640000,0.9770000,1.3435,1.831,2.2515,0.0653333
0.1020000,1.73233,1.758,3.73767,1.189,0.1650000,0.1340000,0.8030000,2.018,1.187,1.127,0.3350000,1.011,0.8940000,0.1110000,0.0940000,0.1160000,1.634,0.0645000,0.9750000,1.34,1.8275,2.248,0.0656667
0.1010000,1.73167,1.758,3.73767,1.1885,0.1650000,0.1320000,0.8030000,2.018,1.185,1.126,0.3350000,1.012,0.8940000,0.1110000,0.0950000,0.1155000,1.634,0.0650000,0.9745000,1.3375,1.8255,2.246,0.0660000
0.1015000,1.73133,1.75833,3.738,1.1885,0.1670000,0.1310000,0.8030000,2.018,1.184,1.125,0.3350000,1.011,0.8930000,0.1120000,0.0950000,0.1170000,1.6335,0.0655000,0.9740000,1.3365,1.8245,2.245,0.0660000
0.1010000,1.731,1.75833,3.73833,1.188,0.1680000,0.1290000,0.8040000,2.017,1.182,1.124,0.3350000,1.011,0.8930000,0.1120000,0.0950000,0.1175000,1.6335,0.0660000,0.9735000,1.3355,1.823,2.2445,0.0663333
0.1010000,1.731,1.75833,3.73867,1.188,0.1670000,0.1270000,0.8030000,2.017,1.181,1.123,0.3350000,1.01,0.8930000,0.1120000,0.0950000,0.1170000,1.633,0.0660000,0.9730000,1.335,1.822,2.244,0.0663333
0.1010000,1.73067,1.75867,3.73867,1.1875,0.1660000,0.1260000,0.8030000,2.017,1.18,1.123,0.3360000,1.009,0.8930000,0.1130000,0.0960000,0.1170000,1.6325,0.0665000,0.9720000,1.3345,1.8215,2.243,0.0663333
0.1010000,1.73033,1.759,3.739,1.187,0.1730000,0.1240000,0.8030000,2.016,1.178,1.122,0.3360000,1.009,0.8930000,0.1130000,0.0960000,0.1170000,1.632,0.0670000,0.9715000,1.334,1.8205,2.2425,0.0666667
0.1010000,1.73033,1.75933,3.73933,1.187,0.1730000,0.1220000,0.8030000,2.016,1.176,1.121,0.3360000,1.008,0.8930000,0.1130000,0.0960000,0.1175000,1.6305,0.0670000,0.9710000,1.333,1.8195,2.2415,0.0670000
0.1010000,1.73033,1.75933,3.74,1.1865,0.1720000,0.1210000,0.8030000,2.016,1.175,1.121,0.3360000,1.008,0.8920000,0.1130000,0.0970000,0.1180000,1.63,0.0680000,0.9705000,1.3325,1.819,2.241,0.0670000
0.1005000,1.72967,1.759,3.74,1.186,0.1720000,0.1190000,0.8030000,2.016,1.173,1.12,0.3350000,1.006,0.8920000,0.1130000,0.0970000,0.1180000,1.6295,0.0680000,0.9700000,1.3315,1.8185,2.2395,0.0673333
0.1005000,1.72933,1.759,3.74,1.186,0.1710000,0.1170000,0.8030000,2.016,1.171,1.119,0.3350000,1.005,0.8920000,0.1130000,0.0980000,0.1180000,1.629,0.0685000,0.9695000,1.331,1.8175,2.2385,0.0676667
0.1005000,1.729,1.759,3.74033,1.186,0.1710000,0.1150000,0.8030000,2.016,1.169,1.119,0.3350000,1.003,0.8920000,0.1130000,0.0980000,0.1180000,1.628,0.0690000,0.9685000,1.33,1.8165,2.237,0.0676667
0.1010000,1.729,1.759,3.74067,1.1855,0.1710000,0.1130000,0.8030000,2.015,1.166,1.118,0.3350000,1.002,0.8920000,0.1140000,0.0980000,0.1180000,1.6275,0.0690000,0.9675000,1.329,1.816,2.235,0.0676667
0.1010000,1.72867,1.75867,3.74067,1.185,0.1710000,0.1110000,0.8040000,2.015,1.162,1.116,0.3340000,1.001,0.8920000,0.1140000,0.0980000,0.1180000,1.6265,0.0690000,0.9665000,1.328,1.815,2.233,0.0680000
0.1005000,1.72833,1.759,3.741,1.185,0.1700000,0.1100000,0.8040000,2.014,1.158,1.115,0.3340000,0.9990000,0.8910000,0.1130000,0.0990000,0.1185000,1.6255,0.0685000,0.9660000,1.3265,1.8135,2.231,0.0680000
0.1005000,1.728,1.75867,3.741,1.1845,0.1700000,0.1080000,0.8040000,2.013,1.155,1.114,0.3340000,0.9970000,0.8900000,0.1130000,0.0990000,0.1185000,1.6245,0.0685000,0.9655000,1.325,1.8125,2.229,0.0680000
0.1010000,1.72767,1.75867,3.741,1.1845,0.1700000,0.1070000,0.8040000,2.012,1.151,1.113,0.3330000,0.9950000,0.8900000,0.1130000,0.0990000,0.1185000,1.6235,0.0685000,0.9645000,1.3235,1.811,2.227,0.0680000
0.1000000,1.72767,1.75833,3.741,1.184,0.1700000,0.1060000,0.8040000,2.011,1.148,1.111,0.3330000,0.9930000,0.8900000,0.1130000,0.0990000,0.1185000,1.6225,0.0690000,0.9635000,1.322,1.81,2.2245,0.0683333
0.1005000,1.727,1.75833,3.741,1.1835,0.1700000,0.1040000,0.8030000,2.009,1.145,1.108,0.3330000,0.9910000,0.8900000,0.1130000,0.0990000,0.1190000,1.621,0.0695000,0.9625000,1.3205,1.8085,2.223,0.0686667
0.1005000,1.72667,1.758,3.741,1.1835,0.1690000,0.1030000,0.8030000,2.007,1.142,1.105,0.3330000,0.9890000,0.8890000,0.1130000,0.0990000,0.1190000,1.62,0.0695000,0.9620000,1.319,1.807,2.221,0.0686667
0.0995000,1.72667,1.758,3.741,1.183,0.1690000,0.1010000,0.8030000,2.005,1.139,1.102,0.3330000,0.9870000,0.8890000,0.1120000,0.1000000,0.1190000,1.619,0.0705000,0.9610000,1.3175,1.806,2.219,0.0693333
0.0995000,1.72633,1.75767,3.74133,1.1825,0.1690000,0.0990000,0.8030000,2.002,1.137,1.098,0.3330000,0.9840000,0.8890000,0.1120000,0.1000000,0.1185000,1.6175,0.0700000,0.9600000,1.316,1.8045,2.2175,0.0693333
0.0985000,1.726,1.75733,3.741,1.1815,0.1690000,0.0980000,0.8030000,1.998,1.134,1.094,0.3330000,0.9810000,0.8880000,0.1120000,0.1000000,0.1195000,1.616,0.0700000,0.9590000,1.315,1.803,2.2155,0.0693333
0.0985000,1.72567,1.75733,3.741,1.1815,0.1690000,0.0970000,0.8020000,1.994,1.13,1.09,0.3330000,0.9790000,0.8870000,0.1110000,0.1000000,0.1195000,1.615,0.0705000,0.9585000,1.3135,1.8015,2.214,0.0696667
0.0985000,1.72533,1.757,3.741,1.1805,0.1690000,0.0950000,0.8020000,1.99,1.127,1.086,0.3320000,0.9780000,0.8870000,0.1110000,0.1010000,0.1190000,1.6135,0.0715000,0.9575000,1.312,1.8005,2.2115,0.0693333
0.0990000,1.72433,1.75633,3.741,1.1795,0.1680000,0.0940000,0.8020000,1.984,1.124,1.083,0.3320000,0.9770000,0.8860000,0.1100000,0.1010000,0.1190000,1.6125,0.0725000,0.9565000,1.3105,1.7995,2.21,0.0696667
0.0985000,1.72433,1.75567,3.74067,1.1785,0.1680000,0.0920000,0.8020000,1.979,1.121,1.08,0.3320000,0.9770000,0.8850000,0.1100000,0.1010000,0.1195000,1.6105,0.0735000,0.9560000,1.309,1.798,2.2075,0.0696667
0.0980000,1.724,1.75567,3.741,1.178,0.1680000,0.0910000,0.8010000,1.972,1.118,1.077,0.3320000,0.9760000,0.8840000,0.1090000,0.1010000,0.1195000,1.6095,0.0735000,0.9545000,1.3075,1.797,2.205,0.0696667
0.0985000,1.72333,1.755,3.741,1.177,0.1680000,0.0900000,0.8010000,1.965,1.114,1.074,0.3310000,0.9750000,0.8830000,0.1080000,0.1010000,0.1195000,1.6075,0.0735000,0.9535000,1.3065,1.7955,2.203,0.0696667
0.0980000,1.722,1.75433,3.74033,1.176,0.1680000,0.0890000,0.8000000,1.957,1.11,1.07,0.3310000,0.9750000,0.8820000,0.1070000,0.1010000,0.1195000,1.606,0.0745000,0.9525000,1.305,1.794,2.2005,0.0700000
0.0975000,1.72133,1.75367,3.74,1.175,0.1680000,0.0870000,0.8000000,1.949,1.106,1.066,0.3310000,0.9740000,0.8800000,0.1070000,0.1010000,0.1195000,1.6035,0.0750000,0.9515000,1.3025,1.7925,2.198,0.0703333
0.0975000,1.72033,1.753,3.74,1.1735,0.1680000,0.0860000,0.7990000,1.94,1.101,1.061,0.3300000,0.9730000,0.8790000,0.1060000,0.1010000,0.1200000,1.6015,0.0755000,0.9500000,1.301,1.7915,2.195,0.0710000
0.0970000,1.71933,1.752,3.73933,1.172,0.1680000,0.0850000,0.7990000,1.93,1.096,1.057,0.3300000,0.9720000,0.8770000,0.1050000,0.1010000,0.1200000,1.599,0.0760000,0.9490000,1.299,1.7895,2.1915,0.0710000
0.0970000,1.71833,1.751,3.73867,1.17,0.1680000,0.0840000,0.7980000,1.92,1.091,1.053,0.3300000,0.9710000,0.8750000,0.1040000,0.1010000,0.1195000,1.596,0.0765000,0.9480000,1.2975,1.788,2.188,0.0713333
0.0965000,1.717,1.75033,3.738,1.1685,0.1680000,0.0820000,0.7970000,1.91,1.084,1.049,0.3300000,0.9700000,0.8730000,0.1040000,0.1010000,0.1200000,1.592,0.0770000,0.9470000,1.295,1.7865,2.183,0.0713333
0.0960000,1.71633,1.74967,3.73733,1.1665,0.1690000,0.0810000,0.7960000,1.898,1.077,1.045,0.3290000,0.9680000,0.8700000,0.1030000,0.1010000,0.1205000,1.588,0.0775000,0.9455000,1.293,1.784,2.1785,0.0713333
0.0960000,1.71533,1.749,3.73633,1.164,0.1680000,0.0800000,0.7950000,1.886,1.07,1.04,0.3290000,0.9660000,0.8680000,0.1030000,0.1020000,0.1205000,1.583,0.0785000,0.9435000,1.291,1.782,2.173,0.0716667
0.0955000,1.71433,1.74833,3.73533,1.1615,0.1680000,0.0780000,0.7940000,1.875,1.062,1.036,0.3280000,0.9640000,0.8660000,0.1020000,0.1020000,0.1210000,1.5775,0.0790000,0.9420000,1.288,1.7795,2.1665,0.0716667
0.0955000,1.71333,1.747,3.73433,1.159,0.1670000,0.0770000,0.7920000,1.864,1.054,1.031,0.3280000,0.9610000,0.8630000,0.1020000,0.1020000,0.1215000,1.572,0.0800000,0.9405000,1.285,1.777,2.159,0.0726667
0.0950000,1.712,1.74633,3.73333,1.1565,0.1670000,0.0750000,0.7910000,1.853,1.046,1.027,0.3280000,0.9590000,0.8610000,0.1010000,0.1030000,0.1220000,1.566,0.0815000,0.9385000,1.2815,1.774,2.1515,0.0726667
0.0945000,1.71067,1.74567,3.73233,1.154,0.1660000,0.0740000,0.7890000,1.843,1.039,1.024,0.3280000,0.9570000,0.8590000,0.1010000,0.1030000,0.1225000,1.5595,0.0830000,0.9365000,1.278,1.771,2.142,0.0726667
0.0945000,1.71,1.74533,3.732,1.1525,0.1660000,0.0730000,0.7870000,1.837,1.035,1.023,0.3280000,0.9550000,0.8570000,0.1010000,0.1040000,0.1225000,1.5555,0.0835000,0.9350000,1.2755,1.7685,2.136,0.0733333