File: R/rHDPE_App/app/www/Output/FTIR/Features/Specimen_Features.csv
,FTIR_777,FTIR_808,FTIR_825,FTIR_841,FTIR_854,FTIR_875,FTIR_908,FTIR_972,FTIR_997,FTIR_1018,FTIR_1066,FTIR_1082,FTIR_1166,FTIR_1195,FTIR_1213,FTIR_1261,FTIR_1367,FTIR_1377,FTIR_1398,FTIR_1409,FTIR_1435,FTIR_1490,FTIR_1541,FTIR_1577,FTIR_1631,FTIR_1645,FTIR_1658,FTIR_1739,FTIR_1978,FTIR_2162,FTIR_2952,FTIR_2960,FTIR_3297
0,0.0,0.0,0.0,0.0,0.0,0.0,0.168029,0.0,0.0,0.0,0.0,0.0,0.0,0.0,0.0,0.0,0.431323,0.0,0.0,0.0,0.0,0.0,0.0,0.0,0.0,0.184835,0.0,0.0,0.0,0.408915,0.0,0.0,0.0
3,0.0,0.0,0.0,0.0,0.0,0.0,0.162427,0.0,0.0,0.0,0.0,0.0,0.0,0.0,0.0,0.0,0.308079,0.0,0.0,0.0,0.0,0.0,0.0,0.0,0.0,0.0,0.0,0.0,0.162427,0.957909,0.0,0.0,0.0
6,0.0,0.0,0.0,0.0,0.0,0.0,0.151223,0.0,0.0,0.0,0.0,0.0,0.0,0.0,0.0,0.0,0.487342,0.0,0.0,0.0,0.0,0.0,0.0,0.0,0.0,0.45373,0.464934,0.997123,0.151223,1.0,0.0,0.0,0.0
9,0.0,0.0,0.0,0.0,0.0,0.0,0.0,0.0,0.0,0.0,0.0,0.0,0.0,0.0,0.0,0.0,0.0,1.0,0.0,0.0,0.0,0.0,0.0,0.0,0.504148,0.341691,0.0,0.0,0.408915,0.694616,0.0,0.0,0.0
12,0.0,0.0,0.0,0.0,0.0,0.0,0.0,0.0,0.0,0.0,0.0,0.0,0.0,0.0,0.0,0.0,0.0,1.0,0.0,0.0,0.0,0.0,0.0,0.0,0.100805,0.0,0.0,0.145621,0.0,0.0,0.0,0.0,0.0
15,0.0,0.0,0.0,0.0,0.0,0.0,0.0,0.0,0.0,0.0,0.0,0.0,0.0,0.0,0.0,0.0223776,0.0279796,1.0,0.0,0.0,0.0447855,0.0,0.0615924,0.0,0.0,0.0,0.0,0.0,0.0,0.0,0.0,0.0559895,0.0
18,0.0,0.0,0.0,0.0,0.0,0.0,0.274467,0.0,0.0,0.0,0.0,0.0,0.0,0.0,0.0,0.0,0.274467,0.48174,0.0,0.336089,0.0,0.0,0.0,0.0,1.0,0.0,1.0,0.0,0.0,0.140019,0.0,0.0,0.0
21,0.0,0.0,0.0,0.0,0.0,0.0,0.240855,0.0,0.0,0.0,0.0,0.0,0.0,0.0,0.0,0.0,0.235253,0.408915,0.0,0.0,0.0,0.0,0.0,0.0,0.397711,0.0,0.184835,0.0,0.257661,1.0,0.0,0.0,0.0
24,0.0,0.0,0.0,0.0,0.0,0.0,0.0,0.0,0.0,0.0,0.0,0.0,0.0,0.0,0.0,0.778646,0.0,1.0,0.0,0.0,0.0,0.0,0.00557205,0.0,1.0,0.308079,0.280069,0.0727954,0.324885,0.980317,0.0,0.901889,0.0
27,0.0,0.0,0.0,0.0,0.0,0.0,0.0,0.0223776,0.0,0.0,0.0,0.0,0.0,0.0,0.0,0.70582,0.0,1.0,0.0,0.0,0.0,0.0,0.0727956,0.0,0.515352,0.196039,0.0,0.190437,0.207243,1.0,0.0,1.0,0.0
30,0.0,0.0,0.0,0.0,0.0,0.0,0.0,0.0,0.0,0.0,0.722626,0.0,0.0,0.0,0.0,0.0,0.0391835,0.627392,0.0,0.0,0.112009,0.0,1.0,0.526556,0.0,0.0,0.0,0.0,0.364099,1.0,0.0,0.0,0.0
33,0.0,0.0,0.0,0.0,0.0,0.0,0.0,0.0,0.0,0.0,0.0,0.0,0.0,0.0,0.0,0.0,0.0335815,0.689014,0.0,0.0,0.0,0.0,0.0896024,0.0391835,0.0,0.0,0.0,0.0,0.0,0.347293,0.0,0.0,0.0
36,0.0,0.0,0.0,0.0,0.0,0.0,0.0,0.0,0.0,0.0,0.0,0.0,0.0,0.0,0.0,0.0,0.128815,0.224049,0.0,0.0,0.0,0.0,0.257661,0.00557162,0.0,0.0,0.0,0.0,0.0,0.845869,0.0,0.0,0.0
39,0.0,0.0,0.0,0.0,0.0,0.0,0.0,0.0,0.0,0.0,0.0,0.0,0.0,0.0,0.0,0.0,0.0111736,0.50975,0.0,0.0,0.0727954,0.0,0.862676,0.302477,0.0,0.0,0.0,0.0,0.252059,1.0,0.0,0.0,0.0
42,0.0,0.0,0.0,0.0,0.0,0.0,0.0,0.0,0.0,0.0,0.324885,0.0,0.0,0.0,0.0,0.162427,0.0783974,0.498546,0.0,0.0,0.0,0.0,0.0,0.0,0.0,0.0,0.0,0.364099,0.145621,0.935501,0.0,0.0,0.0
45,0.0,0.0,0.0,0.0,0.0,0.0,0.0,0.0,0.0,0.0,0.156825,0.0,0.0,0.0,0.0,0.0,0.0,1.0,0.0,0.0,0.336089,0.0,1.0,1.0,0.0,0.0,0.0,0.0,0.812258,1.0,0.0,0.0,0.0
48,0.0,0.0,0.0,0.0,0.0,0.0,0.0,0.0,0.0,0.0,0.246457,0.0,0.0,0.0,0.0,0.0,0.0,1.0,0.0,0.0,0.336089,0.0,1.0,0.885083,0.0,0.0,0.0,0.0,0.0279796,0.358497,0.0,0.0,0.0
51,0.0,0.0,0.0,0.0,0.0,0.0,0.0,0.0,0.0,0.0,0.246457,0.0,0.0,0.0,0.0,0.408915,0.0503875,1.0,0.0,0.0,0.364099,0.0,1.0,0.81786,0.0,0.0,0.0,0.0,0.240855,0.997123,0.0,0.0,0.0
54,0.0,0.0,0.0,0.0,0.0,0.0,0.240855,0.0,0.0,0.0,0.358497,0.0,0.0,0.0,0.0,0.0503875,0.386507,0.0,0.0,0.0,0.0335815,0.0,1.0,0.0,0.0,1.0,0.0,0.0,0.212845,0.829064,0.0,0.0,0.123213
57,0.0,0.0,0.0,0.0,0.0,0.0,0.218447,0.0,0.0,0.0,0.459332,0.0,0.0,0.0,0.0,0.0,0.459332,0.0,0.0,0.0,0.0167756,0.0,0.974722,0.0,0.0,1.0,0.0,0.0,0.257661,0.963511,0.0,0.0,0.0
60,0.0,0.0,0.0,0.0,0.0,0.0,0.0,0.0,0.0,0.0,0.0671935,0.0,0.0,0.0,0.0,0.134417,0.117611,0.806656,0.0,0.0,0.201641,0.0,0.829064,0.386507,0.0,0.0,0.0,0.0,0.308079,1.0,0.0,0.0,0.0
63,0.0,0.0,0.0,0.0,0.0,0.0,0.0,0.0,0.0,0.0,0.386507,0.0,0.0,0.0,0.0,0.700218,0.0615915,0.952307,0.0,0.0,0.302477,0.0,1.0,0.67781,0.0,0.0,0.0,0.414517,0.0335815,0.728228,0.0,0.0111736,0.0
66,0.0,0.0,0.0,0.0,0.0,0.0,0.0,0.0,0.0,0.0,0.0,0.0,0.0,0.0,0.0,0.380905,0.140019,0.78985,0.0,0.0,0.240855,0.0,1.0,0.661004,0.0,0.0,0.0,0.0,0.352895,1.0,0.0,0.0,0.0
69,0.0,0.0,0.0,0.0,0.0,0.0,0.0,0.0335815,0.0,0.112012,0.0,0.0,0.0,0.0,0.0,0.0559895,0.0,1.0,0.0,0.520954,0.0,0.0,0.0,0.0,1.0,0.0,0.268865,0.0,0.196039,0.0,0.0,0.81786,0.0
72,0.0,0.0,0.0,0.0,0.0,0.0,0.0,0.0,0.0,0.0840016,0.0,0.0,0.0,0.0,0.0,0.0,0.0,1.0,0.0,0.0,0.0,0.0,0.0,0.0,0.0,0.0,0.123213,0.151223,0.302477,1.0,0.0,0.476138,0.0
75,0.0,0.0,0.0,0.0,0.0,0.0,0.0,0.0,0.0,0.246459,0.0,0.0,0.0,0.0,0.0,0.134417,0.0,1.0,0.0,0.145621,0.0,0.0,0.0,0.0,0.0,0.0,0.0,0.0,0.100805,0.207243,0.0,0.403313,0.0
78,1.0,0.0,0.364099,0.0,1.0,0.0,1.0,0.0,0.0,0.0,0.0,1.0,0.0,1.0,1.0,0.0,1.0,1.0,0.644198,0.0,0.0,1.0,0.173632,0.0,0.0,0.0,0.0,0.425721,0.179233,0.78985,0.0,1.0,0.0
81,1.0,0.0,0.252059,0.0,1.0,0.0,1.0,0.0,0.0,0.0,0.0,1.0,0.0,1.0,1.0,0.0,1.0,1.0,0.459332,0.0,0.0,1.0,0.179234,0.0,0.0,0.201641,0.0,0.257661,0.100805,0.767442,0.0,0.980317,0.0
84,0.207243,0.0,0.0,0.0,1.0,0.0,0.45373,0.0,0.0,0.0,0.0,1.0,0.0,0.464934,0.56577,0.0,0.308079,1.0,0.0,0.0,0.0447855,0.263263,0.11201,0.0,0.0,0.0,0.0,0.341691,0.0223776,0.246457,0.0,0.459332,0.0
87,0.0,0.0,0.0,0.0,0.0,0.0,0.845869,0.0,0.0,0.0,0.0,0.0,0.0,0.0,0.0,0.0,0.0,0.352895,0.0,0.0,0.0,0.0,0.0,0.0,0.0,0.0,0.0,0.0,0.0447855,0.879481,0.0,0.0,0.0
90,0.0,0.0,0.0,0.0,0.0,0.0,0.868277,0.0,0.0,0.0,0.0,0.0,0.0,0.0,0.0,0.0,0.184835,0.207243,0.0,0.0,0.0,0.0,0.0,0.0,0.0,0.0,0.0,0.0,0.386507,0.991521,0.0,0.0,0.0
93,0.0,0.0,0.0,0.0,0.0,0.0,0.806656,0.0,0.0,0.0,0.0,0.0,0.0,0.0,0.0,0.319283,0.151223,0.392109,0.0,0.0,0.0,0.0,0.0,0.0,0.0,0.0,0.0,0.0,0.0,0.470536,0.0,0.0,0.0
96,0.0,0.0,0.0,0.0,0.0,0.0,0.0,0.0,0.0,0.0,0.0,0.0,0.0,0.0,0.0,0.375303,0.0,1.0,0.0,0.0,0.0,0.0,0.0,0.0,0.0,0.0,0.0,0.0503875,0.252059,0.784248,0.0,0.168029,0.0
99,0.0,0.0,0.0,0.0,0.0,0.0,0.0,0.0,0.0,0.0,0.0,0.0,0.0,0.0,0.0,0.112009,0.0,1.0,0.0,0.0,0.0,0.0,0.0,0.0,0.0,0.0,0.0,0.666606,0.358497,1.0,0.0,0.201641,0.0
102,1.0,0.0,0.252059,0.0,1.0,0.0,1.0,0.0,0.0,0.0,0.0,1.0,0.0,1.0,1.0,0.414517,1.0,1.0,0.520954,0.0,0.0,1.0,0.25206,0.0,0.229651,1.0,0.0,1.0,0.285671,1.0,0.0,1.0,0.0
105,0.929899,0.0,0.0503875,0.0,1.0,0.0,1.0,0.0,0.0,0.0,0.0,1.0,0.0,1.0,1.0,0.0,1.0,1.0,0.268865,0.0,0.0,1.0,0.0896023,0.0,0.0,0.380905,0.0,0.745034,0.0671935,0.76184,0.0,0.840267,0.0
108,0.0,0.0,0.0,0.0,0.0952034,0.0,0.112009,0.0,0.0,0.0,0.0,0.319283,0.0,0.0,0.0,0.330487,0.0,1.0,0.0,0.0,0.0,0.0,0.0,0.0,0.0,0.0,0.0,0.991521,0.0,0.190437,0.0,0.0559895,0.0
111,0.0,0.0,0.0,0.0,0.0,0.0,0.498546,0.0,0.0,0.0,0.0,0.0,0.0,0.0,0.0,0.0,0.414517,0.0,0.0,0.0,0.0,0.0,0.0,0.0,0.0,0.0,0.0,0.0,0.498546,1.0,0.0,0.0,0.0
114,0.0,0.0,0.0,0.0,0.0,0.0,0.62179,0.0,0.0,0.0,0.0,0.0,0.0,0.0,0.0,0.0,0.403313,0.0,0.0,0.0,0.0,0.0,0.0,0.0,0.0,1.0,0.0,0.0,0.0,0.162427,0.0,0.0,0.0
117,0.0,0.0,0.0,0.0,0.0,0.0,0.599382,0.0,0.0,0.0,0.0,0.0,0.0,0.0,0.0,0.0,0.369701,0.0,0.0,0.0,0.0,0.0,0.0,0.0,0.0,0.0,0.0,0.364099,0.56577,0.969113,0.0,0.0,0.0
120,0.0,0.0,0.0,0.0,0.0,0.0,0.0,0.0,0.0,0.0,0.0,0.0,0.0,0.0,0.0,0.0,0.168029,0.0,0.0,0.0,0.0,0.0,0.0,0.0,0.112009,0.0,0.0,0.0,0.0,0.0,0.0,0.0,0.0
123,0.0,0.0,0.0,0.0,0.0,0.0,0.0,0.0,0.0,0.0,0.0,0.0,0.0,0.0,0.0,0.0,0.128815,0.0,0.0,0.0,0.0,0.0,0.0,0.0,0.0,0.0,0.0,0.0,0.448128,1.0,0.0,0.0,0.0
126,0.0,0.0,0.0,0.0,0.0,0.0,0.571372,0.0,0.0,0.0,0.0,0.0,0.0,0.0,0.0,0.0,0.268865,0.0,0.0,0.0,0.0,0.0,0.0,0.0,0.0335815,1.0,0.0,0.0,0.0,0.246457,0.0,0.0,0.0
129,0.0,0.0,0.0,0.0,0.0559895,0.0,0.666606,0.0,0.0,0.0,0.0,0.0223776,0.0,0.0,0.0,0.0,0.319283,0.0,0.0,0.0,0.0,0.0,0.0,0.0,0.0279796,0.795452,0.0,0.0,0.0,0.0,0.0,0.0,0.0
132,0.0,0.0,0.0,0.0,0.0,0.0,0.442527,0.0,0.0,0.0,0.0,0.0,0.0,0.0,0.0,0.0,0.240855,0.0,0.0,0.0,0.0,0.0,0.0,0.0,0.0,0.0,0.0,1.0,0.0,0.0896014,0.0,0.0,0.0
135,0.0,0.0,0.0,0.268865,0.0,0.0279796,0.308079,0.330487,0.207243,0.0,0.0,0.0,0.0,0.0,0.0,0.0,0.0,1.0,0.0,0.0,0.196039,0.0,0.0,0.0,0.81786,0.324885,0.0279796,0.0,0.0,0.425721,0.0,1.0,0.0
138,0.0,0.0,0.0,0.431323,0.0,0.246457,0.235253,0.582576,0.347293,0.0,0.0,0.0,0.016778,0.0,0.0,0.0,0.0,1.0,0.0,0.0,0.6498,0.0,0.0,0.0,0.0,0.0,0.0,0.0,0.644198,1.0,1.0,1.0,0.0
141,0.0,0.0,0.0,0.0,0.0,0.0,0.0,0.0,0.0,0.0,0.0,0.0,0.0,0.0,0.0,0.0,0.246457,0.0,0.0,0.0,0.0,0.0,0.0,0.0,0.0,0.0,0.0,0.235253,0.0,1.0,0.0,0.0,0.0
144,0.0,0.0,0.0,0.0,0.0,0.0,0.0,0.0,0.0,0.0,0.0,0.0,0.0,0.0,0.0,0.0,0.263263,0.0,0.0,0.0,0.0,0.0,0.0,0.0,0.0,0.806656,0.0,0.0,0.302477,1.0,0.0,0.0,0.0
147,0.0,0.0,0.0,0.0,0.0,0.0,0.0,0.0,0.0,0.0,0.0,0.0,0.0,0.0,0.0,0.0,0.117611,0.0,0.0,0.0,0.0,0.0,0.0,0.0,0.0,0.0,0.0,0.240855,0.173631,0.745034,0.0,0.0,0.0
150,0.0,0.0,0.0,0.700218,0.0,0.0,0.140019,0.571372,0.459332,0.0,0.0,0.0,0.212848,0.0,0.0,0.0,0.0,1.0,0.0,0.0,0.268865,0.0,0.0,0.0,0.319283,0.0,0.0,0.0,0.106407,1.0,0.0,1.0,0.0
153,0.0,0.0,0.0,0.81786,0.0,0.0,0.128815,0.722626,0.571372,0.0,0.0,0.0,0.347296,0.0,0.0,0.0,0.0,1.0,0.0,0.0,0.397711,0.0,0.0,0.0,0.0,0.0,0.0,0.0,0.0,0.0447855,1.0,1.0,0.0
156,0.0,0.0,0.0,0.778646,0.0,0.0,0.0559895,0.750636,0.59378,0.0,0.0,0.0,0.448133,0.0,0.0,0.0,0.0,1.0,0.0,0.0,0.408915,0.0,0.0,0.0,0.0,0.0,0.0,0.795452,0.0,0.0,0.0,1.0,0.0
159,0.0,0.0,0.0,0.196039,0.0,0.235253,0.0615915,0.436925,0.168029,0.0,0.0,0.0,0.0503901,0.0,0.0,0.0,0.0,1.0,0.0,0.0,0.448128,0.0,0.0,0.0,0.0,0.0,0.0,0.0,0.240855,1.0,0.504148,1.0,0.0
162,0.0,0.0,0.0,0.425721,0.0,0.0783974,0.134417,0.582576,0.274467,0.0,0.0,0.0,0.173634,0.0,0.0,0.0223776,0.0,1.0,0.0,0.0,0.212845,0.0,0.0,0.0,0.0,0.0111736,0.0,0.229651,0.548964,1.0,0.0,1.0,0.0
165,0.0,0.0,0.0,0.218447,0.0,0.336089,0.0615915,0.352895,0.123213,0.621792,0.0,0.0,0.0,0.0,0.0,0.0,0.0,1.0,0.0,0.0,0.638596,0.0,0.25206,0.0,0.0,0.0671935,0.246457,1.0,0.0,0.767442,0.352895,1.0,0.0
168,0.0,0.0,0.0,0.526556,0.0,0.0,0.117611,0.616188,0.392109,0.0,0.0,0.0,0.0783976,0.0,0.0,0.0,0.0,1.0,0.0,0.0,0.257661,0.0,0.526559,0.179233,0.59378,1.0,1.0,0.0223776,0.0896014,0.0335815,0.0,1.0,0.0
171,0.0,0.0,0.0,0.610586,0.0,0.123213,0.0391835,0.717024,0.526556,0.0,0.0,0.0,0.212845,0.0,0.0,0.0,0.0,1.0,0.0,0.0,0.0,0.0,0.442529,0.100805,0.0,1.0,1.0,0.616188,0.0783974,0.571372,0.0,1.0,0.0
174,0.0,0.0671935,0.0,1.0,0.0,0.0559895,0.0,1.0,1.0,0.0,0.0,0.0,0.604988,0.0,0.0,0.0,0.0,1.0,0.0,0.0,1.0,0.0,0.0,0.0,0.0,0.0,0.0,0.543362,0.661004,1.0,0.0,1.0,0.0
177,0.0,0.0447855,0.0,1.0,0.0,0.117611,0.0,1.0,1.0,0.0,0.0,0.0,0.756238,0.0,0.0,0.0,0.0,1.0,0.0,0.0,1.0,0.0,0.0,0.0,0.0,0.0,0.0,0.100805,0.56577,1.0,1.0,1.0,0.0
180,0.0,0.0,0.0,0.448128,0.0,0.0335815,0.0,0.901889,0.560168,0.0,0.0,0.0,0.229654,0.0,0.0,0.0,0.0,1.0,0.0,0.0,0.963511,0.0,0.0,0.0,0.0,0.0,0.0,0.845869,0.229651,1.0,1.0,1.0,0.0
183,0.0,0.0,0.0,0.0,0.0,0.0,0.229651,0.0,0.76184,0.0,0.0,0.0,0.644203,0.0,0.0,0.117611,0.0,1.0,0.0,0.0,0.0,0.0,0.0,0.0,0.0,1.0,0.0,0.554566,0.0,1.0,1.0,1.0,1.0
186,0.0,0.0,0.0,0.240855,0.0,0.257661,0.319283,0.140019,0.0,0.0,0.0,0.0,0.347294,0.0,0.0,0.0,0.0,1.0,0.0,0.0,0.0,0.0,0.33609,0.0,0.0,0.0,0.0,0.0447855,0.0,0.0,0.0,0.0,0.0
189,0.0,0.0,0.0,0.0391835,0.0,0.985919,0.0,1.0,0.0,0.0,0.0,0.0,0.375306,0.0,0.0,0.0,0.0,1.0,0.0,0.0,1.0,0.0,0.425725,0.0503875,0.0,0.0,0.0,0.0,0.0,1.0,1.0,1.0,0.576974
192,0.0,0.0,0.0,0.0,0.0,0.156825,0.0671935,0.201641,0.0,0.0,0.0,0.0,0.0,0.0,0.0,0.0,0.0,1.0,0.0,0.0,0.0,0.0,0.0,0.0,0.0,0.274467,0.0952034,0.0,1.0,1.0,1.0,1.0,0.0
195,0.0,0.0,0.0,0.330487,0.0,0.229651,0.229651,0.683412,0.235253,0.0,0.0,0.0,0.212846,0.0,0.0,0.0,0.0,1.0,0.0,0.0,0.0,1.0,0.599388,0.0,0.0,0.0,0.0,0.0,0.0,0.0,0.0,1.0,0.0
198,0.0,0.0,0.0,0.00557162,0.0,0.0,0.0391835,0.134417,0.0,0.0,0.0,0.0,0.0,0.0,0.0,0.0,0.0,1.0,0.0,0.0,0.0,0.0,0.49295,0.0,0.0,0.0,0.0,0.386507,1.0,0.795452,1.0,1.0,0.0
201,0.0,0.0,0.0,0.0783974,0.0,0.0,0.0,0.207243,0.0,0.0,0.0,0.0,0.0,0.0,0.0,0.0,0.0,1.0,0.0,0.0,0.0,0.0,0.0,0.0,0.0,0.0,0.0,0.0,1.0,1.0,1.0,1.0,0.128815
204,0.0,0.0,0.0,0.162427,0.0,0.0615915,0.145621,0.408915,0.0,0.0,0.0,0.0,0.0,0.0,0.0,0.0,0.0,1.0,0.0,0.0,0.0,0.0,0.453735,0.0,0.0,0.0,0.0,0.0,0.957909,0.929899,1.0,1.0,0.0
207,0.0,0.0,0.0,0.0,0.0,0.0,0.0,0.0,0.0,0.0,0.0,0.0,0.0,0.0,0.0,0.0,0.0,1.0,0.0,0.0,0.0,0.0,0.0,0.0,0.0,0.0,0.0,0.0,0.0,0.0,1.0,1.0,0.0
210,0.0,0.0,0.0,0.0,0.0,0.0,0.0,0.0279796,0.0,0.0,0.0,0.0,0.0,0.0,0.0,0.0,0.0,1.0,0.0,0.0,0.0,0.0,0.375304,0.0,0.0,0.0,0.0,0.0,1.0,0.0,1.0,1.0,0.0
213,0.0,0.0,0.0,0.190437,0.0,0.0,0.0447855,0.560168,0.0559895,0.0,0.0,0.0,0.0,0.0,0.0,0.0,0.0,1.0,0.0,0.0,0.0,0.0,0.879483,0.0,0.0,0.0,0.0,0.0,0.201641,0.0,1.0,1.0,0.0
216,0.0,0.207243,0.0,0.616188,0.0,0.0279796,0.218447,0.48174,0.0783974,0.0,0.0,0.0,0.151224,0.0,0.0,1.0,0.0,1.0,0.0,0.0,0.0,0.0,0.0,0.0,1.0,1.0,0.0,0.0,0.576974,1.0,0.0,0.0,0.0783974
219,0.0,0.0,0.0,0.162427,0.0,0.0,0.00557162,0.291273,0.0,0.0,0.0,0.0,0.16243,0.0,0.0,0.582576,0.0,1.0,0.0,0.0,0.0,0.0,0.0,0.0,0.0,0.0,0.0,0.745034,0.0,1.0,0.599382,0.599382,0.0
222,0.0,0.0,0.0,0.0,0.0,0.0,0.0,0.0,0.0,0.0,0.0,0.0,0.0,0.0,0.0,0.599382,0.0,1.0,0.0,0.0,0.0,0.0,0.890692,0.0,1.0,1.0,0.0,0.0,0.0,1.0,1.0,0.0,0.0
225,0.0,0.0,0.0,0.240855,0.0,0.0,0.0952034,0.112009,0.0,0.0,0.0,0.0,0.0,0.0,0.0,0.0,0.0,1.0,0.0,0.0,1.0,0.0,1.0,0.0,0.0,0.0,0.0,0.0,1.0,1.0,1.0,0.0,0.0
228,0.0,0.0,0.0,0.0,0.0,0.0,0.0,0.0391835,0.0,0.0,0.0,0.0,0.0,0.0,0.0,0.0,0.0,1.0,0.0,0.0,0.0,0.0,0.0,0.0,0.0,0.0,0.0,0.0,0.0,1.0,1.0,0.0,0.0
231,0.0,0.0,0.0,0.0952034,0.0,0.0,0.0111736,0.347293,0.0503875,0.0,0.0,0.0,0.0,0.0,0.0,0.0,0.0,1.0,0.0,0.0,0.560168,0.0,0.0,0.0,0.0,0.0447855,0.0,0.0,0.997123,0.0,1.0,1.0,0.0
234,0.0,0.0,0.0,0.0,0.0,0.0,0.0,0.0,0.0,0.0,0.0,0.0,0.0,0.0,0.0,0.0,0.0,1.0,0.0,0.0,0.0,0.0,0.0,0.0,1.0,1.0,0.0,0.0,1.0,0.0,1.0,0.0,0.0
237,0.0,0.0,0.0,0.0,0.0,0.0,0.0559895,0.0,0.0,0.0,0.0,0.0,0.0,0.0,0.0,0.0,0.0,1.0,0.0,0.0,0.0,0.0,0.0,0.0,0.0,0.0671935,0.0,0.0,0.134417,0.0,0.0,0.0,0.0
240,0.0,0.0,0.0,0.436925,0.0,0.0,0.308079,0.890685,0.0783974,0.0,0.0,0.151223,0.0,0.0,0.0,0.0,0.0,1.0,0.0,0.0,0.0,0.0,1.0,0.0,1.0,1.0,0.0,0.571372,0.0,1.0,0.0,0.0,0.184835
243,0.0,0.0,0.0,0.0,0.0,0.0,0.162427,0.0,0.0,0.0,0.0,0.0,0.0,0.0,0.0,0.0,0.0,1.0,0.0,0.0,0.0,0.0,0.0,0.0,1.0,1.0,0.0,0.487342,0.0,1.0,1.0,0.0,0.0
246,0.0,0.0,0.0,0.252059,0.0,0.0,0.0783974,0.722626,0.0,0.0,0.0,0.0,0.0167775,0.0,0.0,0.0,0.0,1.0,0.0,0.0,0.610586,0.0,0.0,0.0,0.0,0.0,0.0,0.0,0.319283,1.0,1.0,1.0,0.0
249,0.0,0.0,0.0,0.184835,0.0,0.0,0.162427,0.448128,0.0615915,0.0,0.0,0.0,0.0503892,0.0,0.0,0.0,0.0,1.0,0.0,0.0,0.498546,0.0,0.50415,0.0,0.0,0.0,0.0,0.0,0.442527,1.0,1.0,0.0,0.0
252,0.0,0.0,0.0,0.0,0.0,0.0,0.492944,0.0,0.0,0.0,0.0,0.0,0.0,0.0,0.0,0.0,0.173631,0.313681,0.0,0.0,0.0,0.0,0.0,0.0,0.0,0.100805,0.0,0.0,0.0,0.0,0.0,0.0,0.0
255,0.0,0.0,0.0,0.0,0.0,0.0,0.330487,0.0,0.0,0.0,0.0,0.0,0.0,0.0,0.0,0.0,0.229651,0.246457,0.0,0.0,0.0,0.0,0.0,0.0,0.0,0.750636,0.0,0.0,0.0,0.0,0.0,0.0,0.0
258,0.0,0.0,0.0,0.352895,0.0,0.0,0.173631,0.134417,0.145621,0.0,0.0,0.0,0.0,0.0,0.0,0.0,0.0,1.0,0.0,0.0,0.347293,0.0,0.0,0.0,0.0,0.0,0.0,0.0,0.862675,0.0223776,0.0,0.868277,0.0
261,0.0,0.0,0.0,0.352895,0.0,0.0,0.151223,0.145621,0.0839994,0.0,0.0,0.0,0.0,0.0,0.0,0.0,0.0,1.0,0.0,0.0,0.408915,0.0,0.0,0.0,0.0,0.0,0.0,0.190437,0.0,0.0,0.0,0.929899,0.0
264,0.0,0.0,0.0,0.0,0.0,0.0,0.0,0.0,0.0,0.0,0.0,0.0,0.0,0.0,0.0,0.0,0.56577,0.0,0.0,0.0,0.420119,0.0,0.0,0.0,0.50975,0.0,0.0,0.745034,0.873879,0.0,0.0,0.0,0.0
267,0.0,0.0,0.0,0.0,0.0,0.0,0.0,0.0,0.0,0.0,0.0,0.0,0.0,0.0,0.0,0.0,0.498546,0.0,0.0,0.0,1.0,0.0,0.0,0.0,1.0,0.0,0.0,1.0,0.879481,0.0,0.0,0.0,0.0
270,0.0,0.0,0.0,0.0,0.0,0.0,0.0,0.0,0.0,0.0,0.0,0.0,0.0,0.0,0.0,0.0,0.48174,0.0,0.0,0.0,1.0,0.0,0.0,0.0,1.0,0.0,0.0,1.0,0.0,0.0,0.0,0.0,0.0
273,0.0,0.0,0.0,0.0,0.0,0.0,0.0,0.0,0.0,0.0,0.0,0.0,0.0,0.0,0.0,0.0,0.341691,0.0,0.0,0.0,1.0,0.0,0.0,0.0,1.0,0.0,0.0,1.0,0.59378,0.0,0.0,0.0,0.0
276,0.0,0.0,0.0,0.0,0.0,0.0,0.0,0.0,0.0,0.0,0.0,0.0,0.0,0.0,0.0,0.0,0.336089,0.0,0.0,0.0,1.0,0.0,0.0,0.0,1.0,0.0,0.0,1.0,0.739432,0.0,0.0,0.0,0.0
279,0.0,0.0,0.0,0.0,0.0,0.0,0.0,0.0,0.0,0.0,0.0,0.0,0.0,0.0,0.0,0.0,0.386507,0.0,0.0,0.0,1.0,0.0,0.0,0.0,0.0,0.0,0.0,1.0,0.431323,0.246457,0.0,0.0,0.0
282,0.0,0.0,0.0223776,0.0,0.0,0.0,0.515352,0.0,0.0,0.0,0.0,0.0,0.0,0.0,0.0,1.0,0.0,1.0,0.0,0.0,0.0,0.0,0.0,0.0,1.0,0.0,0.0,1.0,0.0,0.0111736,0.0,1.0,0.0
285,0.0,0.0,0.0,0.0,0.0,0.0,0.464934,0.0,0.0,0.0,0.0,0.0,0.0,0.0,0.0,0.0,0.0,1.0,0.0,0.0,1.0,0.0,0.0,0.0,1.0,0.0,0.0,1.0,0.616188,0.0,0.0,0.0,0.0
288,0.0,0.0,0.0,0.0,0.0,0.0,0.0896014,0.0,0.0,0.0,0.0,0.0,0.0,0.0,0.0,0.0279796,0.179233,0.112009,0.0,0.0,0.0615915,0.0,0.0,0.0,0.0447855,0.0,0.0,0.145621,0.0,1.0,0.0,0.0,0.0
291,0.0,0.0,0.0,0.0,0.0,0.0,0.0335815,0.0,0.0,0.0,0.0,0.0,0.0,0.0,0.0,0.0,0.246457,0.274467,0.0,0.0,0.117611,0.0,0.0,0.0,0.0,0.487342,0.0,0.162427,0.0,1.0,0.0,0.0,0.0
294,0.0,0.0,0.0,0.0,0.0,0.0,0.700218,0.0,0.0,0.0,0.0,0.0,0.0,0.0,0.0,0.0,0.0,1.0,0.0,0.0,0.0615915,0.0,0.0,0.0,0.0,0.156825,0.0,0.0,0.801054,0.0,0.0,0.0,0.0
297,0.0,0.0,0.0,0.0671935,0.0,0.0,0.0,0.0111736,0.0,0.0559907,0.0,0.0,0.0,0.0,0.0,1.0,0.0,1.0,0.0,0.308079,0.0,0.0,0.0,0.0,0.812258,0.0,0.0,0.0,0.0,0.0,0.0,0.700218,0.0
300,0.0,0.0,0.0,0.0671935,0.0,0.0,0.0391835,0.0,0.0,0.0279806,0.0,0.0,0.0,0.0,0.0,0.498546,0.0,1.0,0.0,0.0,0.0,0.0,0.0,0.0,1.0,0.0,0.0,0.0,0.369701,0.134417,0.0,0.397711,0.0
303,0.0,0.0,0.0,0.0,0.0,0.0,0.845869,0.0,0.0,0.0,0.0,0.0,0.0,0.0,0.0,0.0,0.285671,0.291273,0.0,0.112009,0.0,0.0,0.0,0.0,0.834666,1.0,0.0,0.319283,0.81786,0.0,0.0,0.0,0.0
306,0.0,0.0,0.0,0.0,0.0,0.0,0.812258,0.0,0.0,0.0,0.0,0.0,0.0,0.0,0.0,0.0,0.140019,0.364099,0.0,0.0,0.252059,0.0,0.0,0.0,0.0,0.0,0.0,0.661004,0.610586,0.0,0.0,0.0,0.0
309,0.0,0.0,0.0,0.655402,0.0,0.543362,1.0,0.436925,0.263263,0.0,0.0,0.0,0.0,0.0,0.0,0.0,0.0,1.0,0.0,0.0,0.0,0.0,0.0,0.0,0.0,0.0,0.0,1.0,0.0,0.0,0.0,1.0,0.0
312,0.0,0.0,0.0,0.812258,0.0,0.0,0.53776,0.548964,0.369701,0.0,0.0,0.0,0.0223778,0.0,0.0,0.0,0.0,1.0,0.0,0.0,0.868277,0.0,0.0,0.0,0.0,0.224049,0.0,0.638596,0.0,0.0,0.0,1.0,0.0
315,0.0,0.0,0.0,0.829064,0.0,0.0,0.582576,0.700218,0.50975,0.0,0.0,0.0,0.0727958,0.0,0.0,0.0,0.0,1.0,0.0,0.0,0.0,0.0,0.0,0.0,0.73383,0.991521,0.0,1.0,0.0,0.0,0.0,1.0,0.0
318,0.0,0.0,0.0,0.0,0.0,0.0,0.946705,0.0,0.0,0.0,0.0,0.0,0.0,0.0,0.0,0.0,0.767442,0.0,0.0,0.0,0.0,0.0,0.0,0.0,0.0,0.0,0.0,0.0,0.543362,0.0,0.0,0.0,0.0
321,0.0,0.0,0.0,0.0,0.0,0.0,0.745034,0.0,0.0,0.0,0.0,0.0,0.0,0.0,0.0,0.0,0.358497,0.0,0.0,0.0,1.0,0.0,0.0,0.0,1.0,0.0,0.0,1.0,0.70582,0.0,0.0,0.0,0.0
324,0.0,0.0,0.0,0.0,0.0,0.0,1.0,0.0,0.0,0.0,0.0,0.0,0.0,0.0,0.0,0.0,0.240855,0.0,0.0,0.0,0.0,0.0,0.0,0.0,0.0,0.218447,0.0,0.0,0.0,0.0,0.0,0.0,0.0
327,0.0,0.0,0.0,0.599382,0.0,0.302477,0.0,0.554566,0.403313,0.0559925,0.0,0.0,0.140022,0.0,0.0,0.0,0.0,1.0,0.0,0.0,0.0,0.0,0.0,0.0,0.0,0.59378,0.0,0.0,0.0,0.0,0.0,1.0,0.0
330,0.0,0.0,0.0,0.324885,0.0,0.246457,0.0,0.246457,0.0952034,0.0,0.0,0.0,0.0,0.0,0.0,0.0,0.0,1.0,0.0,0.0,0.0,0.0,0.0,0.0,0.0,0.330487,0.0,0.0,0.0,0.498546,0.0,1.0,0.0
333,0.0,0.0,0.0,0.369701,0.0,0.0783974,0.0,0.296875,0.224049,0.0,0.0,0.0,0.0,0.0,0.0,0.0,0.0,1.0,0.0,0.0,0.0,0.0,0.0,0.0,0.0,0.263263,0.0,0.0,0.0727954,0.0,0.0,1.0,0.0
336,0.0,0.0,0.0,0.717024,0.0,0.610586,0.0615915,0.45373,0.487342,0.190441,0.0,0.0,0.229654,0.0,0.0,0.252059,0.0,1.0,0.0,0.0,0.0,0.0,1.0,0.0,0.0,0.0,0.0,0.0,0.0,0.0,0.0,1.0,0.683412
339,0.0,0.0,0.0,0.201641,0.0,0.0671935,0.0,0.0839994,0.0167756,0.0,0.0,0.0,0.0,0.0,0.0,0.0,0.0,1.0,0.0,0.0,0.0,0.0,0.55457,0.885083,0.0,0.515352,0.0,0.0,0.123213,0.0,0.0,0.773044,0.0
342,0.0,0.0,0.0,0.201641,0.0,0.0,0.756238,0.0391835,0.0,0.0,0.0,0.0,0.0,0.0,0.0,0.0,0.0615915,1.0,0.0,0.0,0.0,0.0,0.0,0.0,0.0,1.0,0.0,0.0,0.0,1.0,0.0,0.661004,0.0
345,0.0,0.0,0.0,0.156825,0.0,0.0,0.498546,0.0,0.0671935,0.0,0.0,0.0,0.0,0.0,0.0,0.0,0.145621,1.0,0.0,0.0,0.0,0.0,0.0,0.0,0.0,1.0,0.0,0.0,0.0,0.773044,0.0,0.56577,0.0
348,0.0,0.0,0.0,0.0,0.0,0.0,0.364099,0.0,0.0,0.0,0.0,0.0,0.0,0.0,0.0,0.0,0.0,1.0,0.0,0.0,0.0,0.0,0.0,0.0,0.0,0.364099,0.0,0.0,0.0,0.767442,0.0,0.375303,0.0
351,0.0,0.0,0.0,0.0,0.0,0.0,0.0,0.0,0.0,0.0,0.0,0.0,0.0,0.0,0.0,0.0,0.459332,0.0,0.0,0.0,0.0,0.0,0.0,0.0,0.0,0.0,0.0,0.0,0.106407,0.0,0.0,0.0,0.0
354,0.0,0.0,0.0,0.0,0.0,0.0,0.0,0.0,0.0,0.375307,0.0,0.0,0.0,0.0,0.0,0.0,1.0,0.0,0.0,0.0,0.0,0.0,1.0,0.0,0.0,1.0,0.0,0.0,0.0,1.0,0.0,0.0,0.0
357,0.0,0.0,0.0,0.0,0.0,0.0,0.0,0.0,0.0,0.0,0.0,0.0,0.0,0.0,0.0,0.0,0.45373,0.0,0.0,0.0,0.0,0.0,0.0,0.0,0.0,0.369701,0.0,0.0,0.0,0.0,0.0,0.0,0.0
360,0.0,0.0,0.0,0.0,0.0,0.0,0.0,0.0,0.0,0.0,0.0,0.0,0.0,0.0,0.0,0.0,0.576974,0.0,0.0,0.0,0.0,0.0,0.0896056,0.0,0.0,0.324885,0.0,0.0,0.302477,0.0,0.0,0.0,0.0
363,0.0,0.0,0.0,0.0,0.0,0.0,0.0,0.0,0.0,0.0,0.0,0.0,0.0,0.0,0.0,0.0,1.0,0.0,0.0,0.0,1.0,0.0,0.969117,0.0,0.0,1.0,0.0,0.364099,0.0,0.0,0.0,0.0,0.0
366,0.0,0.0,0.0,0.0,0.0,1.0,0.0,0.0,0.0,0.0,0.0,0.0,0.0,0.0,0.0,0.0,0.464934,1.0,0.0,0.0,0.0,0.0,0.0,0.0,0.0,0.0,0.0,0.0,0.812258,1.0,0.0,0.263263,0.0
369,0.0,0.0,0.0,0.0,0.0,1.0,0.0,0.0,0.0,0.0,0.0,0.0,0.0,0.0,0.0,0.0,0.0,1.0,0.0,0.0,0.0,0.0,0.0,0.0,0.0,0.0,0.0,0.0,0.0,0.0,0.0,0.0,0.0
372,0.0,0.0,0.0,0.0,0.0,1.0,0.0,0.0559895,0.0727954,0.0,0.0,0.0,0.0,0.0,0.0,0.0,0.0,1.0,0.0,0.0,0.0,0.0,1.0,0.0,0.0,1.0,0.0,0.0,1.0,0.0,0.0,0.868277,0.0
375,0.0,0.0,0.0,0.0,0.0,0.918695,0.773044,0.0,0.0,0.0,0.0,0.235253,0.0,0.0,0.0,0.0,1.0,1.0,0.0,0.0,1.0,0.0,1.0,0.0,0.0,1.0,0.0,1.0,0.0,0.0,0.0,0.0,0.0
378,0.0,0.0,0.369701,1.0,0.0,0.0,0.257661,0.0,0.0,0.246457,0.0,0.0503875,0.0,0.0,0.0,0.0,1.0,0.0,0.0,0.0,1.0,0.0,1.0,0.0,0.0,1.0,0.0,0.0,1.0,1.0,0.0,0.0,0.0
381,0.0,0.0,0.0,0.0,0.0,1.0,0.0,0.0,0.0,0.0,0.0,0.0,0.0,0.0,0.0,0.0,0.358497,1.0,0.0,0.229651,0.0,0.0,0.0,0.0,0.0,0.862675,0.0,0.0,0.229651,0.0,0.0,0.0,0.0
384,0.0,0.0,0.0,0.0,0.0,1.0,0.0,0.0,0.0,0.0,0.0,0.0,0.0,0.0,0.0,0.0,0.123213,1.0,0.0,0.274467,0.773044,0.0,0.0,0.0,0.0,0.571372,0.0,0.0,0.0,1.0,0.0,0.151223,0.0
387,0.0,0.0,0.0,0.0,0.0,1.0,0.0,0.0,0.0,0.0,0.0,0.0,0.0,0.0,0.0,0.0,0.207243,1.0,0.0,0.0,0.974715,0.0,0.0,0.0,0.0,0.0,0.0,0.0,0.0,0.207243,0.0,0.0671935,0.0
390,0.0,0.0,0.0,0.0,0.0,0.0,0.308079,0.0,0.0,0.0,0.0,0.0,0.0,0.0,0.0,0.0,0.134417,1.0,0.0,0.0,0.0,0.0,0.0,0.0,0.0,1.0,0.0,0.0,0.425721,1.0,0.0,0.140019,0.0
393,0.0,0.0,0.0,0.0,0.0,0.0,0.156825,0.0,0.0,0.0,0.0,0.0,0.0,0.0,0.0,0.0,0.0447855,1.0,0.0,0.0,0.0,0.0,0.0,0.0,0.0,0.532158,0.0,0.0,0.274467,0.0,0.0,0.0,0.0
396,0.0,0.0,0.0,0.0,0.0,0.0,0.420119,0.0,0.0,0.0,0.0,0.0,0.0,0.0,0.0,0.0,0.431323,1.0,0.0,0.0,0.0,0.0,0.274469,0.0,0.0,1.0,0.0,0.0,0.526556,0.0783974,0.0,0.145621,0.0
399,0.0,0.0,0.0,0.0,0.0,0.117611,0.73383,0.0,0.0,0.0,0.0,0.0,0.0,0.0,0.0,0.0,0.0783974,1.0,0.0,0.0,0.0,0.0,0.0,0.0,0.0,0.319283,0.0,0.0,0.0,1.0,0.0,0.0,0.0
402,0.0,0.0,0.0,0.0,0.0,0.0896014,0.879481,0.0,0.0,0.0,0.0,0.0,0.0,0.0,0.0,0.0,0.0783974,1.0,0.0,0.0,0.0,0.0,0.0,0.0,0.0,0.526556,0.0,0.0,0.464934,0.588178,0.0,0.0,0.0
405,0.0,0.0,0.0,0.0,0.0,0.0,0.560168,0.0,0.0,0.0,0.0,0.0,0.0,0.0,0.0,0.0,0.644198,0.0,0.0,0.0,0.0503875,0.0,0.0,0.0,0.0,0.666606,0.0,0.0,0.576974,0.425721,0.0,0.0,0.0
408,0.0,0.0,0.0,0.0,0.0,0.0,0.0559895,0.0,0.0,0.0,0.0,0.0,0.0,0.0,0.0,0.0,0.341691,0.0,0.0,1.0,1.0,0.0,0.240857,0.0,0.0,1.0,0.0,1.0,0.980317,0.0,0.0,0.0,0.0
411,0.0,0.0,0.0,0.0,0.0,0.0,0.0223776,0.0,0.0,0.0,0.0,0.0,0.0,0.0,0.0,0.0,0.263263,0.0,0.0,1.0,0.582576,0.0,0.0,0.0,0.0,0.0,0.0,0.0,0.952307,0.560168,0.0,0.0,0.0
414,0.0,0.0,0.0,0.0,0.0,0.0,0.739432,0.0,0.0,0.0,0.0,0.0,0.0,0.0,0.0,0.0,0.504148,1.0,0.0,0.0,0.0,0.0,0.0,0.0,0.0,0.403313,0.0,0.0,0.224049,0.0,0.0,0.0,0.0
417,0.0,0.0,0.0,0.0,0.0,0.0,1.0,0.0,0.0,0.0,0.0,0.0,0.0,0.0,0.0,0.0,0.935501,1.0,0.0,0.0,0.0,0.0,0.616191,0.0,0.0,1.0,0.0,0.0,1.0,0.0,0.0,0.0,0.0
420,0.0,0.0,0.0,0.0,0.0,0.0,1.0,0.0,0.0,0.0,0.0,0.0,0.0,0.0,0.0,0.0,0.890685,1.0,0.0,0.0,1.0,0.0,0.285673,0.0,0.0,1.0,0.0,0.0,0.0671935,0.397711,0.0,0.0,0.0
423,0.0,0.0,0.0,0.0,0.0,0.0,0.324885,0.0,0.0,0.0,0.0,0.112009,0.0,0.0,0.0,0.0,0.929899,1.0,0.0,0.0,0.0,0.0,1.0,0.0,0.0,1.0,0.0,0.0,1.0,0.845869,0.0,0.0,0.0
426,0.0,0.0,0.0,0.0,0.0,0.504148,0.638596,0.0,0.0,0.0,0.0,0.296875,0.0,0.0,0.0,0.0,1.0,0.0,0.0,0.0,0.0,0.0,1.0,0.0,0.0,0.0,0.0,0.0,1.0,1.0,0.0,0.0,0.0
429,0.0,0.0,0.0,0.0,0.0,0.218447,0.0,0.0,0.0,0.0,0.0,0.0,0.0,0.0,0.0,0.0,0.890685,1.0,0.0,0.0,0.0,0.0,0.0,0.0,0.0,0.0,0.0,0.0,0.0,1.0,0.0,0.0,0.0
432,0.0,0.0,0.0,0.0,0.0,0.0,0.0,0.0,0.0,0.0,0.0,0.0,0.0,0.0,0.0,0.0,0.487342,1.0,0.0,0.0,0.0,0.0,0.0,0.0,0.0,0.0,0.0,0.0,0.252059,0.576974,0.0,0.0,0.0
435,0.0,0.0,0.0,0.0,0.0,0.0,0.196039,0.0,0.0,0.0,0.0,0.0,0.0,0.0,0.0,0.0,0.845869,1.0,0.0,0.0,1.0,0.0,0.358503,0.0,0.0,1.0,0.0,0.0,0.604984,0.76184,0.0,0.0,0.0
438,0.56577,0.0,0.0671935,0.0,1.0,0.0,0.526556,0.0,0.0,0.0,0.0,1.0,0.0,0.974715,1.0,0.0,0.560168,0.0,0.0,0.0,0.0,1.0,0.313683,0.0,0.0,1.0,0.0,0.0,0.604984,0.0,0.0,0.0,0.0
441,0.0,0.0,0.0,0.0,0.834666,0.0,0.196039,0.0,0.0,0.0,0.0,1.0,0.0,0.252059,0.442527,0.0,0.873879,0.0,0.0,0.0,0.112009,0.812258,0.0,0.0,0.0,1.0,0.0,0.0,0.173631,0.145621,0.0,0.0,0.0
444,0.0,0.0,0.0,0.0,0.0,0.0,1.0,0.0,0.0,0.0,0.0,0.0,0.0,0.0,0.0,0.0,0.235253,1.0,0.0,0.0,0.0,0.0,0.0559913,0.0,0.0,0.901889,0.0,0.0,0.0,0.0,0.0,0.0,0.0
447,0.0,0.0,0.0,0.0,0.0,0.0,1.0,0.0,0.0,0.0,0.0,0.0,0.0,0.0,0.0,0.0,0.123213,1.0,0.0,0.0,0.0,0.0,0.0,0.0,0.0,0.548964,0.0,0.0,0.257661,0.0,0.0,0.0,0.0
450,0.0,0.0,0.0,0.0,0.0,0.0,0.913093,0.0,0.0,0.0,0.0,0.0,0.0,0.0,0.0,0.0,0.123213,1.0,0.0,0.0,0.0,0.0,0.0,0.0,0.0,0.661004,0.0,0.0,0.504148,0.123213,0.0,0.0,0.0
453,0.0,0.0,0.0,0.0,0.0,0.0,0.946705,0.0,0.0,0.0,0.0,0.0,0.0,0.0,0.0,0.0,0.666606,0.0,0.0,0.0,0.0,0.0,0.0,0.0,0.0,0.0,0.0,0.0,0.739432,0.0,0.0,0.0,0.0
456,0.0,0.0,0.0,0.0,0.0,0.0,0.851471,0.0,0.0,0.0,0.0,0.0,0.0,0.0,0.0,0.0,0.492944,0.0,0.0,0.0,0.0,0.0,0.0,0.0,0.0,0.0,0.0,0.0,0.806656,0.0,0.0,0.0,0.0
459,0.0,0.0,0.0,0.0,0.0,0.0,0.851471,0.0,0.0,0.0,0.0,0.0,0.0,0.0,0.0,0.0,0.476138,0.0,0.0,0.0,0.0,0.0,0.0,0.0,0.0,0.0,0.0,0.0503875,1.0,1.0,0.0,0.0,0.0
462,0.0,0.0,0.0,0.0,0.0,0.0,0.722626,0.0,0.0,0.0,0.0,0.0,0.0,0.0,0.0,0.0,0.0,1.0,0.0,0.0,0.0279796,0.0,0.0,0.0,0.0,0.929899,0.0,0.0,0.78985,1.0,0.0,0.0,0.0
465,0.0,0.0,0.0,0.0,0.0,0.0,0.76184,0.0,0.0,0.0,0.0,0.0,0.0,0.0,0.0,0.0,0.123213,1.0,0.0,0.0,0.0559895,0.0,0.0,0.0,0.0,0.0,0.0,0.0,0.386507,1.0,0.0,0.0,0.0
468,0.0,0.0,0.0,0.0,0.0,0.0,0.823462,0.0,0.0,0.0,0.0,0.0,0.0,0.0,0.0,0.0279796,0.207243,1.0,0.0,0.0,0.0783974,0.0,0.0,0.0,0.0,0.0,0.0,0.0,0.0,1.0,0.0,0.0111736,0.0
471,0.0,0.0,0.0,0.341691,0.0,0.0,0.78985,0.0279796,0.0,0.0,0.0,0.0,0.0,0.0,0.0,0.0,0.0,1.0,0.0,0.0,0.324885,0.0,0.0,0.0,0.0,0.0,0.0,0.0,0.974715,1.0,0.0,0.196039,0.0
474,0.0,0.0,0.0,0.218447,0.0,0.0,0.76184,0.0167756,0.0,0.0,0.0,0.0,0.0,0.0,0.0,0.0,0.0,1.0,0.0,0.0,0.302477,0.0,0.0,0.0,0.0,0.0,0.0,0.0,0.520954,1.0,0.0,0.336089,0.0
477,0.0,0.0,0.0,0.123213,0.0,0.0,0.717024,0.0,0.0,0.0,0.0,0.0,0.0,0.0,0.0,0.0,0.0,1.0,0.0,0.0,0.201641,0.0,0.0,0.0,0.0,0.140019,0.0,0.0,0.0,1.0,0.0,0.184835,0.0
480,0.0,0.0,0.0,1.0,0.0,0.0,0.862675,0.666606,0.644198,0.0,0.0,0.0,0.134417,0.0,0.0,0.0,0.0,1.0,0.0,0.0,0.604984,0.0,0.0,0.0,0.0,0.879481,0.0,0.0,0.885083,1.0,0.0,1.0,0.0
483,0.0,0.0,0.0,0.638596,0.0,0.0,0.711422,0.313681,0.330487,0.0,0.0,0.0,0.0,0.0,0.0,0.0,0.0,1.0,0.0,0.0,0.459332,0.0,0.0,0.0,0.0,0.190437,0.0,0.0,0.918695,0.0,0.0,1.0,0.0
486,0.0,0.0,0.0,1.0,0.0,0.0,0.70582,0.689014,0.638596,0.0,0.0,0.0,0.168032,0.0,0.0,0.0,0.0,1.0,0.0,0.0,0.62179,0.0,0.0,0.0,0.0,0.896287,0.0,0.0,0.0,0.890685,1.0,1.0,0.0
489,0.0,0.0,0.0,0.78985,0.0,0.0,0.666606,0.576974,0.520954,0.0,0.0,0.0,0.0784,0.0,0.0,0.0,0.0,1.0,0.0,0.0,0.604984,0.0,0.0,0.0,0.0,0.498546,0.0,0.0,0.929899,1.0,0.0,1.0,0.0
492,0.0,0.0,0.0,1.0,0.0,0.0,0.851471,0.756238,0.683412,0.0,0.0,0.0,0.13442,0.0,0.0,0.0,0.0,1.0,0.0,0.0,0.750636,0.0,0.0,0.0,0.0,0.73383,0.0,0.0,0.0,0.907491,1.0,1.0,0.0
495,0.0,0.0,0.0,1.0,0.0,0.0,0.81786,1.0,0.969113,0.0,0.0,0.0,0.408918,0.0,0.0,0.0,0.0,1.0,0.0,0.0,0.896287,0.0,0.0,0.0,0.0,1.0,0.0,0.0,0.0,1.0,1.0,1.0,0.0
498,0.0,0.0,0.0,1.0,0.0,0.0,0.70582,1.0,1.0,0.0,0.0,0.0,0.392112,0.0,0.0,0.0,0.0,1.0,0.0,0.0,0.924297,0.0,0.0,0.0,0.0,0.408915,0.0,0.0,0.913093,1.0,1.0,1.0,0.0
501,0.0,0.0,0.0,1.0,0.0,0.0,0.76184,1.0,1.0,0.0,0.0,0.0,0.498551,0.0,0.0,0.0,0.0,1.0,0.0,0.0,0.896287,0.0,0.0,0.0,0.0,0.901889,0.0,0.0,0.957909,0.218447,1.0,1.0,0.0
504,0.0,0.0,0.0,1.0,0.0,0.0,0.62179,1.0,1.0,0.0,0.0,0.0,0.801054,0.0,0.0,0.0,0.0,1.0,0.0,0.0,1.0,0.0,0.0,0.0,0.0,1.0,0.0,0.0,1.0,1.0,1.0,1.0,0.0
507,0.0,0.0,0.0,1.0,0.0,0.0,0.689014,1.0,1.0,0.0,0.0,0.0,0.638601,0.0,0.0,0.0,0.0,1.0,0.0,0.0,1.0,0.0,0.0,0.0,0.0,0.53776,0.0,0.0,0.0,1.0,1.0,1.0,0.0
510,0.0,0.0,0.0,1.0,0.0,0.0,0.62179,1.0,1.0,0.0,0.0,0.0,0.851477,0.0,0.0,0.0,0.0,1.0,0.0,0.0,1.0,0.0,0.0,0.0,0.0,1.0,0.0,0.0,0.548964,0.0,1.0,1.0,0.0
513,0.0,0.0,0.0,1.0,0.0,0.0,0.59378,1.0,1.0,0.0,0.0,0.0,0.582576,0.0,0.0,0.0,0.0,1.0,0.0,0.0,1.0,0.0,0.0,0.0,0.0,0.0,0.0,0.0,1.0,0.280069,1.0,1.0,0.0
516,0.0,0.134417,0.0,1.0,0.0,0.0,0.644198,1.0,1.0,0.0,0.0,0.0,1.0,0.0,0.0,0.0,0.0,1.0,0.0,0.0,1.0,0.0,0.0,0.0,0.0,1.0,0.0,0.0,1.0,0.0,1.0,1.0,0.0
519,0.0,0.212845,0.0,1.0,0.0,0.0,0.599382,1.0,1.0,0.0,0.0,0.0,0.991527,0.0,0.0,0.0,0.0,1.0,0.0,0.0,1.0,0.0,0.0,0.0,0.0,0.812258,0.0,0.0,0.0,1.0,1.0,1.0,0.0
522,0.0,0.0671935,0.0,1.0,0.0,0.0,0.62179,1.0,1.0,0.0,0.0,0.0,0.980323,0.0,0.0,0.0,0.0,1.0,0.0,0.0,1.0,0.0,0.0,0.0,0.0,1.0,0.0,0.0,0.0,1.0,1.0,1.0,0.0
525,0.0,0.0111736,0.0,1.0,0.0,0.0,0.73383,1.0,1.0,0.0,0.0,0.0,0.969114,0.0,0.0,0.0,0.0,1.0,0.0,0.0,1.0,0.0,0.0,0.0,0.0,0.380905,0.0,0.0,1.0,1.0,1.0,1.0,0.0
528,0.0,1.0,0.0,1.0,0.0,0.0,0.0,1.0,1.0,0.0,0.0,0.0,1.0,0.0,1.0,1.0,0.0,1.0,0.0,0.0,1.0,0.0,0.0,0.0,0.0,1.0,0.0,0.0,1.0,0.0,1.0,1.0,0.0
531,0.0,1.0,0.0,1.0,0.0,0.0,0.0,1.0,1.0,0.0,0.0,0.0,1.0,0.0,1.0,1.0,0.0,1.0,0.0,0.0,1.0,0.0,0.0,0.0,0.0,0.0671935,0.0,0.0,1.0,1.0,1.0,1.0,0.0
534,0.0,1.0,0.0,1.0,0.0,0.0,0.0,1.0,1.0,0.0,0.0,0.0,1.0,0.0,1.0,1.0,0.0,1.0,0.0,0.0,1.0,0.0,0.0,0.0,0.0,0.0,0.0,0.0,1.0,1.0,1.0,1.0,0.0
537,0.0,0.0,0.0,0.0,0.0,0.0,0.106407,0.0,0.0,0.0,0.0,0.0,0.0,0.0,0.0,0.0,0.0,1.0,0.0,0.0,0.0,0.0,0.0,0.0,0.0,0.0,0.0,0.0,0.0,0.812258,0.0,0.0,0.0
540,0.0,0.0896014,0.0,1.0,0.0,0.0,0.532158,1.0,1.0,0.0,0.0,0.0,1.0,0.0,0.0,0.00557162,0.0,1.0,0.0,0.0,0.448128,0.0,0.873879,0.0,0.0559895,1.0,0.0,0.0,0.62179,0.0,1.0,1.0,0.0
543,0.0,0.767442,0.0,1.0,0.0,0.0,0.0,1.0,1.0,0.0,0.0,0.0,1.0,0.0,0.0,0.0,0.0,1.0,0.0,0.0,0.0,0.0,1.0,0.767442,1.0,1.0,1.0,0.0503875,1.0,0.0,1.0,1.0,0.0
546,0.0,1.0,0.0,1.0,0.0,0.0,0.0,1.0,1.0,1.0,0.0,0.0,1.0,0.0,0.78985,1.0,0.0,1.0,0.0,0.0,1.0,0.0,0.0,0.0,0.0,0.980317,0.0,0.0,1.0,0.0,1.0,0.0,0.0
549,0.0,0.0671935,0.0,0.263263,0.0,0.431323,1.0,0.868277,0.117611,0.005573,0.106407,0.179233,0.0,0.0783974,0.0,0.0,1.0,1.0,0.0,0.0,0.0,0.0,0.0,0.0,0.0,1.0,0.0,0.0,1.0,0.0,0.0,0.0,0.0
552,0.0,0.0,0.0,0.62179,0.0,0.392109,1.0,0.532158,0.364099,0.0,0.0,0.0,0.0,0.0,0.0,0.0,1.0,1.0,0.0,0.0,0.62179,0.0,0.0,0.0,0.711422,1.0,0.0,0.0,0.0,1.0,0.0,0.0,0.0
555,0.0,0.156825,0.0,0.548964,0.0,0.717024,1.0,0.448128,0.442527,0.0,0.0,0.0,0.0,0.0,0.470536,0.0,1.0,1.0,0.0,0.0,0.520954,0.0,0.0,0.0,1.0,1.0,0.0,0.0,0.823462,1.0,0.0,0.0,0.0
558,0.0,0.207243,0.0,0.868277,0.0,0.123213,1.0,0.683412,0.263263,0.0,0.0,0.0391835,0.0,0.0,0.0,0.0,1.0,1.0,0.0,0.0,0.81786,0.0,0.0,0.0,1.0,1.0,0.0,0.0,0.62179,1.0,0.0,0.0,0.0
561,0.0,0.0,0.0,1.0,0.0,0.0,1.0,0.319283,0.308079,0.0,0.0,0.0,0.0,0.0,0.0,0.0,1.0,1.0,0.0,0.0,1.0,0.0,0.0,0.0,0.48174,1.0,0.0,0.0,1.0,1.0,0.0,0.0,0.0
564,0.0,0.0,0.0,0.935501,0.0,1.0,1.0,0.70582,0.352895,0.0,0.0,0.0,0.0,0.0,0.644198,0.0,0.985919,1.0,0.0,0.0,0.0,0.0,0.0,0.0,1.0,1.0,0.0,0.0,1.0,0.0,0.0,0.0,0.0
567,0.0,0.0,0.0,0.76184,0.0,1.0,1.0,0.487342,0.263263,0.0,0.0,0.0,0.0,0.0,0.0,0.0,1.0,1.0,0.0,0.0,0.857073,0.0,0.0,0.0,1.0,1.0,0.0,0.0,1.0,1.0,0.0,0.0,0.0
570,0.0,0.156825,0.0,1.0,0.0,1.0,1.0,0.997123,0.576974,0.0,0.0,0.0,0.179237,0.0,0.0447855,0.0,1.0,1.0,0.0,0.0,1.0,0.0,0.0,0.0,1.0,1.0,0.0,0.0,0.638596,0.666606,0.0,0.0,0.0
573,0.0,0.56577,0.0,1.0,0.0,1.0,1.0,1.0,1.0,0.0,0.0,0.0391835,1.0,0.0,0.0,0.246457,0.0,1.0,0.0,0.0,1.0,0.0,1.0,0.829064,0.560168,1.0,0.0,0.0,1.0,1.0,0.0,1.0,0.0
576,0.0,0.946705,0.0,1.0,0.0,1.0,1.0,1.0,1.0,0.0,0.0,0.0,1.0,0.0,0.0,0.246457,0.0,1.0,0.0,0.0,1.0,0.0,1.0,1.0,0.0,0.0,0.0,0.0,0.0,0.694616,1.0,1.0,0.0
579,0.0,0.829064,0.0,1.0,0.0,1.0,1.0,1.0,1.0,0.0,0.0,0.0,1.0,0.0,0.0,0.0503875,0.0,1.0,0.0,0.0,1.0,0.0,0.565771,0.347293,0.0,0.0,0.0,0.0,0.0,1.0,0.0,1.0,0.0
582,0.0,0.0,0.0,0.655402,0.0,1.0,0.980317,0.268865,0.0,0.0,0.0,0.0279796,0.0,0.0,0.0,0.0,0.0,1.0,0.0,0.0,0.901889,0.0,0.0,0.0,0.0,1.0,0.0,0.285671,0.924297,0.140019,0.0,0.0,0.0
585,0.0,0.0839994,0.0,0.0,0.0,1.0,1.0,0.0,0.0,0.0,0.0839994,0.173631,0.0,0.0,0.0,0.0,0.0,1.0,0.0,0.0,0.924297,0.0,0.0,0.0,0.0,0.0,0.0,0.0503875,0.0,1.0,0.0,0.0,0.0
588,0.0,0.0,0.0,0.0,0.0,1.0,1.0,0.0,0.0,0.0,0.0,0.0,0.0,0.0,0.0,0.358497,0.0,1.0,0.0,0.0,0.879481,0.0,0.0,0.0,1.0,0.0,0.0,1.0,0.0,1.0,0.0,0.0,0.0
591,0.0,0.123213,0.0,0.885083,0.0,1.0,1.0,0.728228,0.308079,0.0111749,0.0,0.0,0.0,0.0,0.0,0.0671935,0.0,1.0,0.0,0.0,1.0,0.0,0.0559895,0.0,0.0,0.0,0.0,0.0,1.0,0.0,0.0,0.0,0.0
594,0.0,0.0559895,0.0,1.0,0.0,1.0,1.0,1.0,1.0,0.0,0.0,0.308079,1.0,0.0,0.0,0.0,0.0,1.0,0.0,0.0,1.0,0.0,0.0,0.0,0.0,1.0,0.0,0.0,1.0,0.347293,0.0,1.0,0.0
597,0.0,0.218447,0.0,1.0,0.0,1.0,1.0,1.0,1.0,0.0,0.0,0.235253,1.0,0.0,0.0,0.0447855,0.0,1.0,0.0,0.0,1.0,0.0,0.0,0.0,0.0,1.0,0.0,0.0,0.0,1.0,0.0,1.0,0.0
600,0.0,0.459332,0.0,1.0,0.0,1.0,1.0,1.0,1.0,0.0,0.0,0.140019,1.0,0.0,0.0,0.0,0.0,1.0,0.0,0.0,1.0,0.0,0.0,0.0,0.162427,1.0,0.0,0.0,0.0,1.0,0.0,1.0,0.0
603,0.0,0.918695,0.0,1.0,0.0,1.0,0.0,1.0,1.0,0.0,0.0,0.128815,1.0,0.397711,0.431323,0.448128,0.0,1.0,0.0,0.0,1.0,0.0,0.504148,0.0,1.0,1.0,0.0,0.0,0.0,1.0,0.0,1.0,0.0
606,0.0,1.0,0.0,1.0,0.0,1.0,0.112009,1.0,1.0,0.0111743,0.0,0.0,1.0,0.0,0.0,0.431323,0.0,1.0,0.0,0.0,1.0,0.0,0.168029,0.0,0.246457,1.0,0.0,0.0,0.0,1.0,1.0,1.0,0.0
609,0.0,1.0,0.0,1.0,0.0,1.0,0.0,1.0,1.0,0.0,0.0,0.0,1.0,0.0,0.0,0.414517,0.0,1.0,0.0,0.0,1.0,0.0,0.123214,0.0,0.0,0.134417,0.0,0.0,0.81786,1.0,1.0,1.0,0.0
612,0.0,1.0,0.0,1.0,0.0,1.0,1.0,1.0,1.0,0.823467,0.0,0.0,1.0,0.0,0.0,1.0,0.0,1.0,0.0,0.0,1.0,0.0,0.0,0.0,0.0,0.140019,0.0,0.0,0.296875,1.0,1.0,1.0,0.0
615,0.0,1.0,0.0,1.0,0.0,1.0,0.0,1.0,1.0,0.459334,0.0,0.0,1.0,0.0,0.168029,1.0,0.0,1.0,0.0,0.0,1.0,0.0,0.0,0.0,0.0,0.190437,0.0,0.0,0.0,1.0,1.0,1.0,0.0
618,0.0,1.0,0.0,1.0,0.0,1.0,0.0,1.0,1.0,0.392109,0.0,0.0,1.0,0.0,0.0,0.924297,0.0,1.0,0.0,0.0,1.0,0.0,0.59378,0.0,0.0,0.0,0.0,0.0,1.0,1.0,1.0,1.0,0.0
621,0.0,1.0,0.0,1.0,0.0,1.0,0.599382,1.0,1.0,0.442531,0.0,0.0559895,1.0,0.0,0.0,0.868277,0.0,1.0,0.0,0.0,1.0,0.0,0.627393,0.0615915,0.0,1.0,0.0,0.0,1.0,1.0,1.0,1.0,0.0
624,0.0,1.0,0.0,1.0,0.0,1.0,1.0,1.0,1.0,0.0,0.0,0.0,1.0,0.0,0.0,0.117611,0.0,1.0,0.0,0.0,1.0,0.0,0.0,0.0,0.0,0.0,0.0,0.0,0.0,1.0,0.0,1.0,0.0
627,0.0,0.868277,0.0,1.0,0.0,1.0,1.0,1.0,1.0,0.0,0.0,0.0,1.0,0.0,0.0,0.0783974,0.0,1.0,0.0,0.0,1.0,0.0,0.0,0.0,0.0,0.0,0.0,0.0,0.196039,0.140019,0.0,1.0,0.0
630,0.0,0.924297,0.0,1.0,0.0,1.0,1.0,1.0,1.0,0.0,0.0,0.0,1.0,0.0,0.0,0.324885,0.0,1.0,0.0,0.0,1.0,0.0,0.0,0.0,0.0,1.0,0.0,0.0,0.941103,1.0,0.0,1.0,0.0
633,0.0,1.0,0.0,1.0,0.0,1.0,0.0,1.0,1.0,0.862682,0.0,0.156825,1.0,0.0,0.0,1.0,0.0,1.0,0.0,0.0,1.0,0.0,0.0,0.0,0.0,0.0,0.0,0.0,0.0,1.0,1.0,1.0,0.0
636,0.0,1.0,0.0,1.0,0.0,1.0,0.0,1.0,1.0,0.268865,0.0,0.274467,1.0,0.0,0.0,1.0,0.0,1.0,0.0,0.0,1.0,0.0,0.0,0.0,0.0,0.263263,0.0,0.0,0.0,0.0,1.0,1.0,0.0
639,0.0,1.0,0.0,1.0,0.0,1.0,0.459332,1.0,1.0,0.543368,0.0,0.0,1.0,0.0,0.0,1.0,0.0,1.0,0.0,0.0,1.0,0.0,0.862675,0.442527,0.0,0.0,0.0,0.0,1.0,1.0,1.0,1.0,0.0
642,0.240855,1.0,0.0,1.0,0.0,1.0,0.0,1.0,1.0,0.778651,0.0,0.268865,1.0,0.0,0.0,1.0,0.0,1.0,0.0,0.0,1.0,0.0,1.0,0.520954,0.0,0.829064,0.0,0.0,0.0,1.0,1.0,1.0,0.0
645,0.0,0.0,0.0,1.0,0.0,1.0,1.0,1.0,1.0,0.0,0.0391835,0.0,0.840268,0.0,0.0,0.0,0.0,1.0,0.0,0.0,1.0,0.0,0.0,0.0,0.0,1.0,0.0,0.408915,0.0,0.0,0.0,0.386507,0.0
648,0.0,0.0,0.0,1.0,0.0,1.0,1.0,1.0,1.0,0.0,0.0,0.0,0.638601,0.0,0.0,0.0,0.0,1.0,0.0,0.0,1.0,0.0,0.0,0.0,0.0,0.319283,0.0,0.0,0.302477,0.0,0.0,1.0,0.0
651,0.0,0.369701,0.0,1.0,0.0,1.0,1.0,1.0,1.0,0.0,0.0,0.0,0.492945,0.0,0.0,0.0,0.0,1.0,0.0,0.0,1.0,0.0,0.0,0.0,0.0,0.285671,0.0,0.0,0.0,1.0,0.0,0.330487,0.0
654,0.0,1.0,0.0,1.0,0.0,0.0,1.0,0.0,1.0,0.0,0.0,0.0,0.0,0.0,0.0,0.0,1.0,0.0,0.0,0.0,0.0,0.0,0.0,0.0,0.0952034,1.0,0.431323,0.0,1.0,1.0,0.0,0.0,0.0
657,0.0,0.352895,0.313681,0.0,0.0,0.0,1.0,0.112009,0.616188,0.0,0.0,0.0391835,0.0,0.0,0.0,0.0,1.0,0.0,0.0,0.0,0.0,0.0,0.0,0.0,0.0,1.0,0.0,0.0,1.0,1.0,0.0,0.0,0.0
660,0.0,0.0,0.0,0.53776,0.280069,0.0,1.0,0.0,0.240855,0.0,0.0,0.0,0.0,0.0,0.0,0.0,1.0,0.0,0.0,0.0,0.0,0.0,0.0,0.0,0.0,0.459332,0.0,0.0,0.0,0.683412,0.0,0.0,0.0
663,0.0,0.0,0.0,0.0,0.0,0.0,0.190437,0.0,0.0,0.0,0.0,0.0559895,0.0,0.0,0.0,0.0,0.907491,1.0,0.0,0.0,0.0,0.0,0.0,0.0,0.0,0.184835,0.0,0.0,0.0,0.0,0.0,0.0,0.0
666,0.0,0.0,0.0,0.0,0.0,0.0,0.957909,0.0,0.0,0.0,0.0,0.0,0.0,0.0,0.0,0.0,1.0,0.0,0.0,0.0,0.184835,0.0,0.0,0.0,0.0,1.0,0.0,0.0,1.0,0.0,0.0,0.0,0.0
669,0.0,0.0,0.0,0.0,0.0,0.0,0.302477,0.0,0.0,0.0,0.0,0.0,0.0,0.0,0.0,0.0,1.0,1.0,0.0,0.0,0.173631,0.0,0.0,0.0,0.0,1.0,0.0,0.0,0.0,0.0,0.0,0.0,0.0
672,0.0,0.0,0.0,0.0,0.0,0.0,0.285671,0.0,0.0,0.0,0.0,0.0,0.0,0.0,0.0,0.0,1.0,0.0,0.0,0.0,0.0,0.0,0.0,0.0,1.0,1.0,0.0,0.0,0.0,0.0,0.0,0.0,0.0