File: R/rHDPE_App/app/www/Output/DSC/Features/Features.csv
,DSC_HFC_120,DSC_TC_120,DSC_HFC_80,DSC_TC_Max,DSC_HFC_Max,DSC_TM_Max,DSC_HFM_Max,DSC_HFM_160,DSC_C_HalfPeak,DSC_M_HalfPeak,DSC_HFC_102,DSC_C_Onset,DSC_M_Onset,DSC_Crystallinity,DSC_fPP,DSC_Melt_Temp
0,0.211109,123.773,0.00383269,117.651,2.993,132.593,-2.661,0.000166639,9.102,10.562,0.00632911,123.813,141.414,69.5428,0.0,136.394
1,0.232179,124.053,0.00399933,118.632,3.144,132.513,-2.864,8.33194e-05,8.342,9.722,0.00541306,124.073,140.954,69.4821,0.0,135.893
2,0.227265,123.632,0.00366606,118.412,3.018,132.133,-2.702,0.000583236,8.002,9.722,0.00491339,123.572,140.214,65.6134,0.440037,134.833
3,0.240839,123.833,0.00383269,118.832,3.153,131.893,-2.818,0.000583236,7.961,9.421,0.00441372,123.793,139.974,67.8684,0.465196,134.713
4,0.239007,123.632,0.00383269,118.312,3.297,132.353,-2.786,0.000583236,7.621,9.502,0.00424717,123.672,139.954,68.4155,0.577027,135.313
5,0.243338,123.632,0.00333278,118.392,3.238,133.053,-2.637,0.000416597,8.322,10.802,0.00491339,123.672,142.135,68.1975,0.0,136.974
6,0.248418,123.652,0.00333278,118.131,3.377,133.333,-2.714,0.000416597,8.142,10.622,0.00499667,123.793,141.974,70.1708,0.0,137.334
7,0.341106,124.253,0.00349942,119.932,4.282,133.033,-3.41,0.000499917,5.681,7.681,0.00258161,124.233,139.914,69.6924,0.395613,135.613
8,0.284893,123.913,0.00333278,119.212,3.606,132.693,-2.997,0.000416597,7.181,9.382,0.00349767,123.833,140.994,69.433,0.244887,136.194
9,0.317705,124.313,0.00383269,120.052,3.981,132.733,-3.091,0.000499917,6.681,9.322,0.00283145,124.173,141.194,70.6406,0.294975,136.254
10,0.25991,124.213,0.00366606,119.432,3.317,132.273,-2.788,0.00149975,7.421,9.622,0.00258161,124.073,140.554,66.2235,1.36971,135.473
11,0.2251,123.893,0.00316614,118.151,3.037,132.553,-2.585,0.00149975,8.102,10.142,0.00249833,123.833,140.914,64.8289,1.35322,136.034
12,0.263907,124.353,0.00333278,119.952,3.34,132.233,-2.797,0.00158307,7.301,9.482,0.00249833,124.153,140.614,65.8133,1.32646,135.113
13,0.206612,123.092,0.00316614,117.571,2.82,132.013,-2.483,0.000583236,8.562,10.342,0.0052465,123.092,140.374,64.3633,0.261052,134.913
14,0.230846,123.312,0.00316614,118.011,3.05,131.533,-2.584,0.000499917,7.982,10.081,0.00549634,123.252,139.534,66.0121,0.528092,134.373
15,0.228764,123.372,0.00349942,117.951,3.088,131.453,-2.612,0.000583236,8.182,10.362,0.00549634,123.352,139.934,68.4348,0.529021,135.113
16,0.227629,122.632,0.00233256,117.491,3.038,130.913,-2.509,0.000166639,8.102,10.701,0.00641239,122.712,139.814,67.1814,0.0,133.973
17,0.188719,122.412,0.00183303,116.731,2.668,131.653,-2.253,8.33194e-05,9.662,11.922,0.0106596,122.492,140.974,66.234,0.0,134.133
18,0.205382,122.432,0.00233294,116.571,3.0,131.473,-2.478,0.000166639,8.382,10.481,0.00732845,122.552,139.534,66.8543,0.0800942,134.733
19,0.232012,123.172,0.00283286,117.911,3.129,131.833,-2.595,0.000416597,7.882,10.142,0.00574617,123.232,139.914,67.6519,0.299706,134.973
20,0.192955,123.032,0.00316614,116.711,2.815,133.533,-2.328,0.000499917,9.362,11.702,0.00891073,123.092,141.114,67.6434,0.300277,135.853
21,0.232595,123.152,0.00333278,118.071,3.035,131.333,-2.486,0.000499917,8.442,11.022,0.00649567,123.112,140.354,68.568,0.527054,134.793
22,0.197285,122.852,0.00233294,117.371,2.826,131.213,-2.425,8.33194e-05,8.242,10.281,0.005996,122.812,139.174,63.1423,0.0,133.633
23,0.215131,122.492,0.00249958,117.491,3.099,131.753,-2.542,0.000166639,7.302,9.321,0.00532978,122.692,138.774,62.7413,0.0,133.693
24,0.240673,122.972,0.00233294,118.171,3.132,130.733,-2.636,0.000166556,7.262,9.421,0.00458028,122.872,138.254,64.1437,0.0,133.113
25,0.292055,123.492,0.0029995,118.832,3.725,132.113,-2.865,0.000499917,6.141,8.901,0.00324783,123.472,138.414,66.8834,0.513098,134.313
26,0.301549,123.532,0.00316614,119.152,3.818,131.693,-3.052,0.000499917,5.821,7.981,0.00324783,123.532,137.934,66.2309,0.452735,133.773
27,0.248917,123.352,0.00333222,118.772,3.154,131.013,-2.608,0.00208299,6.921,9.081,0.00358095,123.232,138.794,63.4107,1.91927,133.573
28,0.240756,123.252,0.00316614,119.012,3.025,130.933,-2.506,0.00208299,7.502,9.881,0.00483011,123.092,139.434,63.3223,1.89953,133.173
29,0.234344,123.092,0.002999,118.312,2.986,130.913,-2.445,0.00141643,7.502,10.081,0.00349767,122.972,139.214,63.2843,1.48339,133.673
30,0.20428,123.612,0.00349942,117.911,2.779,131.473,-2.432,0.00116647,9.142,10.962,0.00657895,123.572,141.014,66.1691,0.717698,134.813
31,0.238841,123.893,0.00349942,118.852,3.096,131.533,-2.696,0.00116647,7.621,9.541,0.00458028,123.773,139.534,65.803,0.998475,134.393
32,0.21061,123.753,0.00333222,118.171,2.821,131.613,-2.499,0.000916514,9.002,10.642,0.0067455,123.692,140.934,66.8544,0.64695,134.733
33,0.240007,123.632,0.00399933,118.252,3.268,132.333,-2.891,0.000249958,8.202,9.782,0.00549634,123.712,140.454,70.7309,0.0,135.733
34,0.2495,123.833,0.00416597,118.632,3.331,131.773,-2.915,0.000333278,7.801,9.621,0.004497,123.873,139.794,70.2318,0.41696,134.993
35,0.265573,123.973,0.00416597,118.992,3.487,131.793,-3.039,0.000249958,7.501,9.381,0.00391406,123.993,139.754,71.2287,0.236585,135.053
36,0.247835,123.392,0.00316614,118.512,3.227,131.813,-2.565,0.000999833,7.041,9.761,0.00391406,123.352,139.294,64.7974,1.04971,134.233
37,0.204031,123.372,0.00349942,117.591,2.801,131.293,-2.361,0.00124979,8.682,10.902,0.00574617,123.312,140.134,65.3873,1.02547,134.893
38,0.25991,123.712,0.00366544,119.432,3.253,131.013,-2.735,0.00141643,7.021,9.301,0.00383078,123.512,138.754,65.3435,1.43665,133.873
39,0.241422,123.592,0.00349942,118.652,3.078,131.193,-2.639,0.00149975,7.441,9.541,0.00424717,123.452,139.074,65.02,1.34421,133.993
40,0.213691,123.312,0.00333222,117.691,2.922,131.693,-2.479,0.00124979,8.142,10.142,0.00541306,123.272,139.694,65.1299,1.08883,134.773
41,0.225266,123.692,0.00349942,118.211,3.005,131.613,-2.643,0.000666556,8.302,10.002,0.00549634,123.612,140.234,66.6184,0.558672,135.013
42,0.203781,123.612,0.00333278,117.791,2.856,131.913,-2.381,0.000749875,9.022,11.302,0.00666222,123.592,140.914,66.733,0.390883,135.473
43,0.348185,124.193,0.00316614,120.092,4.337,131.253,-3.417,0.000666556,5.101,7.321,0.00274817,124.093,137.774,68.6408,0.878567,133.533
44,0.242255,123.793,0.00316614,119.012,3.118,131.673,-2.702,0.000833194,7.861,9.661,0.00466356,123.732,140.074,66.6364,0.672813,134.453
45,0.269154,123.953,0.00316614,119.712,3.392,131.573,-2.92,0.000833194,6.961,8.781,0.00399733,123.833,139.154,66.9486,0.743088,134.113
46,0.255041,125.053,0.0044985,119.852,3.445,133.313,-3.116,0.000249958,8.461,9.682,0.00416389,125.113,142.455,72.8395,0.0,136.694
47,0.217022,124.313,0.00349942,118.412,3.201,132.593,-2.765,0.000249958,9.242,11.082,0.00532978,124.493,142.515,72.7478,0.0,136.674
48,0.288035,125.153,0.00433189,120.212,3.833,133.053,-3.343,0.000249958,7.421,8.862,0.00316456,125.273,141.314,73.2495,0.0,136.554
49,0.257581,121.792,0.0029995,116.891,3.209,132.833,-2.333,8.33194e-05,7.822,11.502,0.00891073,121.752,141.294,68.1763,0.0,135.653
50,0.241126,120.512,0.00116647,114.971,3.118,131.653,-2.384,8.33194e-05,7.621,10.661,0.011992,120.612,139.534,66.4194,0.0,134.553
51,0.235794,121.052,0.00183303,115.551,3.071,131.833,-2.398,0.000166556,7.841,10.502,0.0104097,121.152,139.834,66.6458,0.0,134.953
52,0.215523,123.432,0.00216631,117.451,3.143,131.773,-2.893,0.000166639,8.462,9.481,0.00574617,123.532,139.974,68.9914,0.0,134.833
53,0.263574,123.352,0.00149975,117.911,3.685,131.073,-3.304,8.33194e-05,6.941,7.801,0.00341439,123.532,138.414,69.538,0.0,133.513
54,0.257995,123.532,0.00233294,118.552,3.437,131.393,-3.15,0.000166639,7.822,8.621,0.00458028,123.612,139.674,70.3881,0.0,134.053
55,0.163724,124.073,0.00333222,118.011,2.423,132.033,-2.166,0.00616564,9.982,11.402,3.46771e-18,123.933,141.134,62.9264,6.05681,134.153
56,0.190456,124.173,0.00399867,118.552,2.778,132.133,-2.494,0.00491585,8.281,9.782,0.000333111,124.253,139.974,63.0495,4.84312,135.033
57,0.178131,123.732,0.00316614,118.252,2.595,131.893,-2.285,0.00516581,8.962,10.342,0.000249833,123.773,140.234,62.0563,5.061,134.073
58,0.190706,123.993,0.00366606,118.672,2.636,131.573,-2.411,0.00416597,8.842,10.262,0.00199867,123.913,139.934,63.0293,3.76686,133.873
59,0.278157,122.172,0.00583236,116.871,3.579,133.473,-2.805,8.33194e-05,7.602,10.202,0.00766156,122.412,141.594,72.3864,0.0,137.194
60,0.378664,122.992,0.00566572,118.992,4.611,132.933,-3.221,8.33194e-05,5.161,8.622,0.00391406,122.672,140.194,72.4699,0.0,135.833
61,0.271621,122.352,0.005999,117.011,3.437,133.293,-2.738,0.000166639,7.962,10.742,0.00791139,122.412,141.894,72.8819,0.0,137.334
62,0.191039,123.592,0.00333222,117.931,2.68,131.533,-2.433,0.00466589,9.042,10.542,0.00108261,123.632,139.994,65.3304,4.46217,134.353
63,0.198035,123.432,0.00316614,117.951,2.775,131.373,-2.429,0.00541576,8.102,9.861,-0.00124917,123.472,139.314,63.0943,5.49421,134.153
64,0.183211,123.252,0.00316561,117.631,2.71,132.333,-2.339,0.00516581,9.022,10.902,0.000999334,123.352,140.454,65.8153,4.88534,134.833
65,0.184469,122.592,0.00316561,116.751,2.657,132.413,-2.2,0.00441593,8.762,11.002,0.00233178,122.632,140.394,62.3669,4.38807,134.273
66,0.207299,122.572,0.00249958,117.231,2.799,131.573,-2.332,0.00449925,7.862,9.881,0.0007495,122.612,139.594,61.2771,4.4932,134.233
67,0.136036,122.172,0.00233294,115.031,2.324,134.713,-2.026,0.00466589,10.622,12.182,0.00874417,122.072,142.275,60.2446,2.4514,135.513
68,0.199633,122.492,0.00149975,116.711,2.859,131.573,-2.34,0.00458257,7.942,10.141,-0.000166556,122.672,139.214,63.0438,4.9734,134.513
69,0.183128,123.492,0.00333222,117.471,2.731,131.833,-2.247,0.00541576,8.862,11.142,0.00141572,123.572,140.494,64.626,5.25406,135.453
70,0.197452,123.732,0.00366606,117.971,2.748,131.713,-2.39,0.00466589,8.602,10.442,0.00108261,123.672,140.354,64.347,4.46564,134.853
71,0.188291,123.432,0.00333278,118.031,2.583,131.833,-2.289,0.00424929,8.902,10.682,0.00216522,123.412,140.654,61.8723,3.89322,134.153
72,0.205946,123.572,0.00399867,117.931,2.808,131.613,-2.41,0.00424929,8.262,10.282,0.00191539,123.512,139.874,63.8804,4.05467,134.773
73,0.213608,123.372,0.00316561,118.872,2.835,131.333,-2.313,0.0085819,7.261,9.361,-0.000666556,123.252,139.454,57.9003,9.13002,133.073
74,0.22993,123.572,0.00283239,119.292,3.016,131.173,-2.438,0.00891518,6.861,9.001,-0.000583236,123.412,138.934,59.344,9.45335,133.053
75,0.216689,123.352,0.00316561,118.712,2.96,131.273,-2.403,0.00916514,7.001,9.181,-8.62485e-05,123.332,138.914,59.7501,9.435,133.653
76,0.229763,123.933,0.00233294,118.692,3.158,131.633,-2.875,8.33194e-05,8.322,9.501,0.00466356,124.013,140.194,68.9727,0.0,134.693
77,0.341272,124.313,0.00283286,120.132,4.29,131.233,-3.691,8.33194e-05,5.361,6.441,0.00274817,124.313,137.914,68.3089,0.0,132.913
78,0.22968,123.813,0.00266622,118.492,3.135,131.833,-2.939,8.33194e-05,8.222,9.101,0.00499667,123.853,140.014,68.1364,0.0,134.653
79,0.233844,123.732,0.00283286,118.452,3.193,131.813,-2.948,0.000166639,8.182,9.282,0.00491339,123.813,140.154,68.6135,0.0,134.993
80,0.51957,123.012,0.00366606,119.012,6.348,132.493,-4.189,8.33194e-05,4.401,7.341,0.0022485,122.652,140.414,76.4508,0.0,136.074
81,0.45734,122.412,0.00333222,118.352,5.686,132.933,-3.805,8.33194e-05,4.741,7.742,0.00266489,122.352,140.614,73.0181,0.0,136.254
82,0.446342,122.312,0.00349942,118.272,5.531,132.753,-3.566,8.33194e-05,5.401,8.822,0.00291472,122.272,141.014,74.8649,0.0,136.554
83,0.437844,122.492,0.00333278,118.412,5.381,132.713,-3.626,0.000166639,5.461,8.722,0.002998,122.352,141.134,75.4852,0.0,136.654
84,0.300533,121.232,0.00349942,116.231,5.062,132.273,-3.826,8.33194e-05,6.142,7.722,0.00383078,121.952,140.954,73.7922,0.0,136.234
85,0.244293,120.952,0.00366606,115.671,4.217,133.053,-3.309,8.33194e-05,7.501,9.462,0.00707861,121.552,141.934,73.5637,0.0,137.634
86,0.26129,121.072,0.00366606,115.971,4.6,132.733,-3.471,0.000166639,7.181,9.242,0.00499667,121.792,141.694,74.2631,0.0,137.554
87,0.359023,120.632,0.00333278,115.971,5.403,132.213,-3.704,8.33194e-05,5.201,7.801,0.00383078,121.252,140.194,72.6275,0.0,135.613
88,0.281036,120.892,0.00349942,115.871,5.148,132.493,-3.761,0.000166639,5.921,7.902,0.00408061,121.732,141.034,73.7776,0.0,136.374
89,0.414098,125.233,0.00466589,121.012,5.241,133.473,-4.168,8.33194e-05,5.201,6.902,0.0022485,125.333,140.994,75.9852,0.0,136.134
90,0.287891,124.273,0.00333278,119.052,3.878,133.073,-3.276,8.33194e-05,7.641,9.702,0.00308128,124.413,141.534,75.4318,0.0,137.014
91,0.279314,124.073,0.00349942,118.832,3.825,133.273,-3.147,0.000166556,7.521,9.802,0.00341439,124.253,141.514,73.2958,0.0,137.054
92,0.306199,124.973,0.00483253,120.492,4.016,133.613,-3.38,8.33194e-05,7.601,9.742,0.00324783,125.133,142.575,76.3203,0.0,138.134
93,0.34452,123.853,0.00333278,119.832,4.243,133.073,-3.115,0.0034161,6.821,10.002,0.00208195,123.672,142.195,71.8532,1.74198,137.234
94,0.474101,124.413,0.00366606,120.392,5.779,132.233,-3.949,0.00366606,4.281,7.161,0.000581168,124.053,139.854,72.8683,2.69635,135.413
95,0.399484,124.013,0.00333278,119.952,4.905,132.773,-3.356,0.00358274,5.661,9.162,0.000749875,123.833,140.934,73.3298,2.43347,136.694
96,0.165639,122.732,0.00349942,116.851,2.322,132.613,-2.17,0.000499917,11.382,12.462,0.0137408,122.712,143.295,62.2715,0.0,134.553
97,0.202199,122.932,0.00366606,117.451,2.815,133.053,-2.646,0.000583236,9.022,9.442,0.00841106,123.012,140.894,66.0003,0.0,135.293
98,0.299467,123.192,0.00116628,119.072,3.783,132.353,-3.26,0.000499917,5.981,7.201,0.00433045,123.232,138.374,66.5183,0.468427,133.853
99,0.219354,123.873,0.00416528,118.672,3.012,132.993,-2.833,0.00466589,7.701,8.241,0.00166556,123.913,139.654,64.0667,4.30905,134.893
100,0.174217,123.552,0.00399867,117.591,2.635,133.513,-2.515,0.00433261,9.302,9.702,0.00258161,123.632,141.174,62.9689,2.77732,135.713
101,0.193704,123.672,0.00366606,118.071,2.807,133.213,-2.624,0.00449925,8.362,9.002,0.000999334,123.692,140.294,62.7029,3.83717,135.273
102,0.248085,123.232,0.00416597,117.951,3.406,132.753,-3.077,0.000166556,8.882,9.722,0.00807795,123.472,141.814,75.3265,0.0,135.993
103,0.214191,122.992,0.00416597,117.211,3.049,132.533,-2.745,0.000749875,9.022,10.262,0.00841106,123.192,141.174,70.6865,0.204502,135.873
104,0.210027,122.992,0.00416597,117.171,2.993,133.853,-2.526,0.000416597,10.702,12.762,0.0136576,123.272,144.895,70.3835,0.0,138.234
105,0.292305,123.412,0.00349942,118.772,3.789,132.753,-3.188,0.00158307,7.001,8.262,0.00258161,123.672,140.554,69.6285,1.43203,135.553
106,0.169054,122.872,0.002999,116.091,2.677,133.673,-2.246,0.000499917,9.342,11.482,0.00816123,122.872,141.034,64.4182,0.0,136.274
107,0.226879,122.572,0.00366606,117.431,3.081,131.773,-2.632,0.00199967,7.782,9.461,0.00566289,122.792,139.774,65.5917,1.72827,134.553
108,0.216881,122.492,0.00349942,117.191,2.941,131.853,-2.556,0.00199967,8.242,9.762,0.00641239,122.692,140.174,65.2899,1.66884,134.673
109,0.230128,122.692,0.00333222,117.791,3.177,132.773,-2.78,0.000916514,7.342,8.501,0.00566289,122.892,140.294,63.0995,0.60345,134.873
110,0.274817,123.212,0.00333222,118.532,3.631,132.133,-2.896,0.000999833,6.701,8.901,0.00366422,123.372,139.414,67.0312,1.01036,134.593
111,0.212192,122.912,0.00333222,117.511,2.986,132.213,-2.652,0.000916514,8.762,10.142,0.00766156,123.092,141.114,67.6599,0.560873,135.413
112,0.212358,123.052,0.00416597,117.311,3.098,132.833,-2.807,0.000249958,8.982,10.042,0.00799467,123.252,141.414,70.1745,0.0,136.174
113,0.197535,122.852,0.00449925,116.791,2.926,132.733,-2.617,0.000333278,9.642,10.802,0.00957695,123.072,142.055,70.0574,0.0,136.574
114,0.239757,123.132,0.00483253,117.551,3.452,132.573,-3.065,0.000333278,8.502,9.742,0.00707861,123.392,140.994,75.1117,0.0974019,136.214
115,0.294137,122.992,0.00333222,118.592,3.754,131.493,-3.03,0.00133311,6.221,7.981,0.00391406,123.172,138.614,66.259,1.29678,133.733
116,0.259244,122.832,0.00366544,118.111,3.386,131.673,-2.83,0.00133311,7.201,8.821,0.0052465,123.052,139.514,66.9327,1.29933,134.113
117,0.256791,122.712,0.00366544,117.971,3.381,131.813,-2.872,0.00141643,7.242,8.761,0.00541306,122.992,139.494,67.4952,1.27624,134.473
118,0.225183,123.112,0.00349883,117.751,3.098,132.413,-2.809,0.000916514,8.382,9.542,0.00707861,123.272,140.734,68.6111,0.56595,135.413
119,0.22052,123.012,0.00349883,117.471,3.111,132.533,-2.803,0.000749875,8.782,9.842,0.00791139,123.232,141.074,70.4881,0.373229,135.853
120,0.209277,122.952,0.00349883,117.331,2.95,132.693,-2.731,0.000749875,9.102,10.002,0.00882745,123.192,141.334,69.1667,0.0384404,135.813
121,0.229014,124.113,0.00466589,118.111,3.408,134.033,-3.09,0.000249958,9.382,10.302,0.00716189,124.373,143.175,76.2086,0.0,138.034
122,0.261326,124.093,0.00449925,118.612,3.768,133.773,-3.329,0.000249958,8.462,9.642,0.0052465,124.373,142.575,77.5134,0.0,137.694
123,0.249334,123.893,0.00449925,118.252,3.711,133.693,-3.211,0.000249958,8.602,10.142,0.00557961,124.153,142.795,77.783,0.0,137.874
124,0.250708,120.392,0.00183303,115.451,3.172,131.873,-2.536,0.000333278,8.141,10.262,0.0141572,120.772,140.574,68.5019,0.0,134.893
125,0.246376,120.832,0.00316614,115.491,3.199,133.353,-2.462,0.000249958,8.741,11.382,0.0145736,121.232,142.235,70.1057,0.0,136.754
126,0.225712,122.252,0.00216631,116.251,3.665,131.593,-3.097,0.000333278,7.782,9.181,0.00649567,122.592,139.814,72.2232,0.0,134.973
127,0.240543,122.352,0.00216631,116.791,3.699,131.553,-3.137,0.000249958,7.622,8.841,0.00607928,122.672,139.954,71.8628,0.0,134.813
128,0.162808,123.252,0.00349883,117.051,2.622,132.493,-2.376,0.00533244,9.522,10.582,0.00233178,123.292,141.174,64.7151,5.14239,135.653
129,0.152731,122.952,0.00333222,116.711,2.443,132.293,-2.23,0.00508249,10.162,11.362,0.00616256,122.912,141.474,63.6298,4.17648,134.553
130,0.267539,121.572,0.00633122,116.431,3.409,134.133,-2.682,8.33194e-05,9.302,11.682,0.0152398,121.912,144.055,74.7967,0.0,138.314
131,0.276454,121.552,0.005998,116.451,3.508,133.933,-2.788,8.33194e-05,8.722,10.782,0.0129913,121.932,143.215,73.8728,0.0,137.694
132,0.171388,122.592,0.00283286,116.351,2.7,132.433,-2.334,0.00458257,9.582,11.322,0.00441372,122.672,141.294,67.0648,4.44741,135.593
133,0.179303,122.732,0.00316561,116.731,2.746,132.553,-2.435,0.00458257,9.422,10.782,0.00341439,122.872,141.274,67.1691,4.29913,135.493
134,0.181053,122.732,0.00283286,117.111,2.69,132.153,-2.362,0.00466589,8.622,10.082,0.00183211,122.892,140.314,62.0281,4.79281,134.533
135,0.200883,121.692,0.00266622,116.031,2.949,132.613,-2.366,0.00491585,8.362,10.682,0.00499667,121.892,140.614,65.8375,4.81819,135.113
136,0.240834,121.852,0.00283239,116.771,3.335,132.193,-2.701,0.00483253,7.262,9.161,0.00208195,122.172,139.574,66.6246,4.53418,134.613
137,0.205846,122.072,0.002999,116.791,2.824,131.933,-2.4,0.00433261,8.822,10.562,0.00499667,122.272,140.854,65.4053,4.21591,134.713
138,0.203115,122.932,0.00399867,117.411,2.892,132.273,-2.517,0.00658224,8.542,9.942,0.000666222,123.132,140.614,65.9936,5.96233,135.173
139,0.189457,122.892,0.00366544,117.171,2.78,132.453,-2.374,0.00583236,9.022,10.762,0.00199867,123.032,141.214,65.0583,5.13706,135.273
140,0.173888,122.712,0.00383206,116.751,2.587,132.673,-2.319,0.00466589,9.722,10.962,0.00624584,122.852,141.834,63.6054,3.38594,135.373
141,0.136035,122.052,0.00316561,115.571,2.419,133.633,-2.015,0.00833194,9.682,11.342,0.00549634,122.032,141.994,58.6086,7.63504,134.513
142,0.148059,121.712,0.00283286,116.151,2.333,133.593,-2.015,0.00716547,8.642,9.922,0.00291472,121.712,141.374,51.1035,6.14299,134.133
143,0.162806,122.252,0.00266622,116.431,2.573,132.833,-2.174,0.00816531,8.382,9.822,0.0022485,122.352,140.594,57.7063,8.6509,134.693
144,0.136242,122.832,0.00283239,116.311,2.333,134.073,-1.899,0.00866522,9.702,11.642,0.00458028,122.792,141.154,57.5581,8.44016,134.073
145,0.164474,123.492,0.000999833,118.892,2.151,132.273,-2.757,0.000166639,5.901,10.082,0.001499,123.452,141.214,69.7346,0.0,135.193
146,0.231596,123.272,0.00283286,117.931,3.339,131.993,-3.003,8.33194e-05,8.122,9.202,0.00541306,123.452,140.314,69.3858,0.0,135.173
147,0.22027,123.212,0.00283286,117.451,3.23,132.413,-2.992,8.33194e-05,8.922,9.622,0.00741172,123.432,140.954,72.5482,0.0,135.713
148,0.187292,122.992,0.00249958,116.771,2.932,132.853,-2.747,8.33194e-05,9.682,10.222,0.00957695,123.152,141.634,70.0556,0.0,136.114