File: R/rHDPE_App/app/www/Output/TGA/Condensed_Data/Resin19_0__1.csv
0.6400000,30,14.447,100.016,0.0008572
0.7200000,30.5001,14.447,100.019,0.0015683
0.7800000,31.0002,14.448,100.022,0.0045349
0.8500000,31.5003,14.448,100.025,0.0000599
0.9100000,32.0004,14.448,100.027,0.0033560
0.9800000,32.5004,14.449,100.028,0.0029997
1.03,33.0005,14.449,100.03,0.0001092
1.09,33.5006,14.449,100.031,0.0004294
1.15,34.0007,14.449,100.033,0.0041917
1.21,34.5008,14.449,100.034,0.0036724
1.27,35.0009,14.449,100.035,-0.0003641
1.32,35.501,14.45,100.036,0.0042768
1.38,36.0011,14.45,100.037,-0.0003578
1.43,36.5012,14.45,100.038,0.0031459
1.49,37.0013,14.45,100.039,0.0002523
1.54,37.5013,14.45,100.04,0.0046102
1.6,38.0014,14.45,100.041,-0.0001495
1.65,38.5015,14.45,100.041,0.0031744
1.71,39.0016,14.451,100.042,0.0006419
1.76,39.5017,14.451,100.043,0.0005905
1.82,40.0018,14.451,100.044,0.0030395
1.87,40.5019,14.451,100.044,0.0001466
1.92,41.002,14.451,100.045,0.0013665
1.98,41.5021,14.451,100.046,0.0028248
2.03,42.0021,14.451,100.047,0.0005831
2.08,42.5022,14.451,100.047,0.0010185
2.14,43.0023,14.451,100.048,0.0027591
2.19,43.5024,14.452,100.049,0.0016902
2.24,44.0025,14.452,100.05,0.0001929
2.29,44.5026,14.452,100.05,0.0023585
2.34,45.0027,14.452,100.051,0.0023064
2.4,45.5028,14.452,100.052,0.0012471
2.45,46.0029,14.452,100.053,0.0009095
2.5,46.5029,14.452,100.053,0.0021025
2.56,47.003,14.452,100.054,0.0021480
2.61,47.5031,14.452,100.055,0.0008101
2.66,48.0032,14.453,100.056,0.0006663
2.71,48.5033,14.453,100.056,0.0011406
2.76,49.0034,14.453,100.057,0.0019931
2.81,49.5035,14.453,100.058,0.0017539
2.87,50.0036,14.453,100.059,0.0011365
2.92,50.5037,14.453,100.06,0.0014663
2.97,51.0038,14.453,100.06,0.0015587
3.02,51.5038,14.453,100.061,0.0017458
3.07,52.0039,14.453,100.062,0.0014604
3.12,52.504,14.453,100.062,0.0013177
3.18,53.0041,14.454,100.063,0.0011758
3.23,53.5042,14.454,100.064,0.0009864
3.28,54.0043,14.454,100.065,0.0017832
3.33,54.5044,14.454,100.065,0.0014065
3.38,55.0045,14.454,100.066,0.0017800
3.43,55.5046,14.454,100.067,0.0011701
3.48,56.0046,14.454,100.068,0.0008414
3.53,56.5047,14.454,100.068,0.0014484
3.59,57.0048,14.454,100.069,0.0014940
3.64,57.5049,14.455,100.07,0.0016796
3.69,58.005,14.455,100.07,0.0013979
3.74,58.5051,14.455,100.071,0.0015834
3.79,59.0052,14.455,100.072,0.0010231
3.84,59.5053,14.455,100.072,0.0011154
3.89,60.0054,14.455,100.073,0.0013931
3.94,60.5054,14.455,100.074,0.0013926
3.99,61.0055,14.455,100.074,0.0011596
4.04,61.5056,14.455,100.075,0.0019464
4.09,62.0057,14.455,100.076,0.0020849
4.14,62.5058,14.455,100.076,0.0012500
4.19,63.0059,14.456,100.077,0.0012033
4.24,63.506,14.456,100.077,0.0012496
4.3,64.0061,14.456,100.078,0.0012014
4.35,64.5062,14.456,100.079,0.0012014
4.4,65.0063,14.456,100.079,0.0010160
4.45,65.5063,14.456,100.08,0.0014307
4.5,66.0064,14.456,100.081,0.0011074
4.55,66.5065,14.456,100.081,0.0011531
4.6,67.0066,14.456,100.082,0.0014762
4.65,67.5067,14.456,100.082,0.0011063
4.7,68.0068,14.456,100.083,0.0012439
4.75,68.5069,14.457,100.083,0.0013820
4.8,69.007,14.457,100.084,0.0012890
4.85,69.5071,14.457,100.085,0.0013802
4.9,70.0071,14.457,100.085,0.0013341
4.95,70.5072,14.457,100.086,0.0008275
5,71.0073,14.457,100.086,0.0013790
5.05,71.5074,14.457,100.087,0.0007351
5.1,72.0075,14.457,100.088,0.0011023
5.15,72.5076,14.457,100.088,0.0008727
5.2,73.0077,14.457,100.089,0.0005051
5.25,73.5078,14.457,100.089,0.0011019
5.3,74.0079,14.457,100.09,0.0011473
5.35,74.5079,14.457,100.09,0.0007339
5.4,75.008,14.458,100.091,0.0009631
5.45,75.5081,14.458,100.091,0.0008711
5.5,76.0082,14.458,100.092,0.0010540
5.55,76.5083,14.458,100.092,0.0010539
5.6,77.0084,14.458,100.093,0.0010536
5.65,77.5085,14.458,100.093,0.0007330
5.7,78.0086,14.458,100.093,0.0005039
5.75,78.5087,14.458,100.094,0.0008705
5.8,79.0088,14.458,100.094,0.0004123
5.85,79.5088,14.458,100.095,0.0007331
5.9,80.0089,14.458,100.095,0.0006871
5.95,80.509,14.458,100.096,0.0009164
6,81.0091,14.458,100.096,0.0006873
6.05,81.5092,14.458,100.097,0.0010995
6.1,82.0093,14.458,100.097,0.0010539
6.15,82.5094,14.459,100.098,0.0011456
6.2,83.0095,14.459,100.098,0.0010076
6.25,83.5096,14.459,100.098,0.0005037
6.3,84.0096,14.459,100.099,0.0014653
6.35,84.5097,14.459,100.099,0.0010986
6.4,85.0098,14.459,100.1,0.0011442
6.45,85.5099,14.459,100.1,0.0007321
6.5,86.01,14.459,100.1,0.0012356
6.55,86.5101,14.459,100.101,0.0007781
6.6,87.0102,14.459,100.101,0.0010071
6.65,87.5103,14.459,100.102,0.0008237
6.7,88.0104,14.459,100.102,0.0008699
6.75,88.5104,14.459,100.102,0.0004579
6.8,89.0105,14.459,100.103,0.0006868
6.85,89.5106,14.459,100.103,0.0006409
6.9,90.0107,14.459,100.103,0.0006407
6.95,90.5108,14.459,100.104,0.0001831
7,91.0109,14.459,100.104,0.0005950
7.05,91.511,14.46,100.104,0.0007320
7.1,92.0111,14.46,100.105,0.0003661
7.15,92.5112,14.46,100.105,0.0004577
7.2,93.0113,14.46,100.105,0.0005950
7.25,93.5113,14.46,100.106,0.0011440
7.3,94.0114,14.46,100.106,0.0003204
7.35,94.5115,14.46,100.106,0.0010984
7.4,95.0116,14.46,100.106,0.0006865
7.45,95.5117,14.46,100.107,0.0007780
7.5,96.0118,14.46,100.107,0.0005950
7.55,96.5119,14.46,100.107,0.0005036
7.6,97.012,14.46,100.108,0.0005494
7.65,97.5121,14.46,100.108,0.0004577
7.7,98.0121,14.46,100.108,0.0004578
7.75,98.5122,14.46,100.108,0.0000916
7.8,99.0123,14.46,100.109,0.0004120
7.85,99.5124,14.46,100.109,0.0005951
7.9,100.013,14.46,100.109,0.0000916
7.95,100.513,14.46,100.109,0.0001832
8,101.013,14.46,100.11,0.0005956
8.05,101.513,14.46,100.11,0.0006867
8.1,102.013,14.46,100.11,0.0004579
8.15,102.513,14.46,100.11,0.0004581
8.2,103.013,14.46,100.11,0.0006412
8.25,103.513,14.46,100.11,0.0008246
8.3,104.013,14.46,100.111,0.0005037
8.35,104.513,14.46,100.111,0.0009160
8.4,105.013,14.461,100.111,0.0007787
8.45,105.513,14.461,100.111,0.0004582
8.5,106.014,14.461,100.111,0.0003665
8.55,106.514,14.461,100.111,0.0003205
8.6,107.014,14.461,100.112,0.0005036
8.65,107.514,14.461,100.112,-0.0000458
8.7,108.014,14.461,100.112,-0.0000458
8.75,108.514,14.461,100.112,0.0000916
8.8,109.014,14.461,100.112,0.0008701
8.85,109.514,14.461,100.113,0.0002748
8.9,110.014,14.461,100.113,0.0001374
8.95,110.514,14.461,100.113,0.0000916
9,111.014,14.461,100.113,0.0005496
9.05,111.515,14.461,100.113,0.0002290
9.1,112.015,14.461,100.113,0.0005955
9.15,112.515,14.461,100.114,0.0005497
9.2,113.015,14.461,100.114,0.0006411
9.25,113.515,14.461,100.114,0.0004578
9.3,114.015,14.461,100.114,0.0001374
9.35,114.515,14.461,100.114,0.0005038
9.4,115.015,14.461,100.115,0.0004122
9.45,115.515,14.461,100.115,0.0004577
9.5,116.015,14.461,100.115,0.0002749
9.55,116.515,14.461,100.115,0.0003665
9.6,117.016,14.461,100.115,0.0000916
9.65,117.516,14.461,100.115,-0.0000916
9.7,118.016,14.461,100.115,-0.0001833
9.75,118.516,14.461,100.115,0.0000917
9.8,119.016,14.461,100.116,0.0002750
9.85,119.516,14.461,100.116,0.0000000
9.9,120.016,14.461,100.116,-0.0000917
9.95,120.516,14.461,100.116,0.0002291
10,121.016,14.461,100.116,0.0005043
10.05,121.516,14.461,100.116,0.0002750
10.1,122.016,14.461,100.116,0.0004585
10.15,122.517,14.461,100.117,0.0002293
10.2,123.017,14.461,100.117,0.0005962
10.25,123.517,14.461,100.117,0.0002293
10.3,124.017,14.461,100.117,0.0002293
10.35,124.517,14.461,100.117,0.0004126
10.4,125.017,14.461,100.117,0.0007335
10.45,125.517,14.461,100.117,0.0002293
10.5,126.017,14.461,100.117,0.0008258
10.55,126.517,14.461,100.118,0.0001376
10.6,127.017,14.461,100.118,0.0005049
10.65,127.517,14.462,100.118,0.0005048
10.7,128.018,14.462,100.118,0.0007801
10.75,128.518,14.462,100.119,0.0002754
10.8,129.018,14.462,100.119,0.0007344
10.85,129.518,14.462,100.119,0.0004135
10.9,130.018,14.462,100.119,0.0003675
10.95,130.518,14.462,100.12,0.0002756
11.01,131.018,14.462,100.12,0.0005053
11.06,131.518,14.462,100.12,0.0005050
11.11,132.018,14.462,100.12,0.0007345
11.16,132.518,14.462,100.12,0.0006887
11.21,133.018,14.462,100.121,0.0004589
11.26,133.518,14.462,100.121,0.0003211
11.31,134.019,14.462,100.121,0.0001376
11.36,134.519,14.462,100.121,0.0003667
11.41,135.019,14.462,100.122,-0.0001833
11.46,135.519,14.462,100.122,0.0001374
11.51,136.019,14.462,100.122,0.0002746
11.56,136.519,14.462,100.122,0.0002288
11.61,137.019,14.462,100.122,-0.0000915
11.66,137.519,14.462,100.122,0.0002286
11.71,138.019,14.462,100.122,-0.0002286
11.76,138.519,14.462,100.123,0.0001829
11.81,139.019,14.462,100.123,-0.0000914
11.86,139.52,14.462,100.123,-0.0001370
11.91,140.02,14.462,100.123,-0.0003198
11.96,140.52,14.462,100.122,-0.0002283
12.01,141.02,14.462,100.122,-0.0007300
12.06,141.52,14.462,100.122,-0.0003192
12.11,142.02,14.462,100.122,-0.0002280
12.16,142.52,14.462,100.121,-0.0006375
12.21,143.02,14.462,100.121,-0.0008191
12.26,143.52,14.462,100.121,-0.0010006
12.3,144.02,14.462,100.12,-0.0009540
12.35,144.52,14.462,100.12,-0.0012702
12.4,145.021,14.462,100.119,-0.0016766
12.45,145.521,14.462,100.118,-0.0019454
12.5,146.021,14.461,100.117,-0.0018996
12.55,146.521,14.461,100.116,-0.0020349
12.6,147.021,14.461,100.115,-0.0016737
12.65,147.521,14.461,100.114,-0.0018108
12.7,148.021,14.461,100.113,-0.0013144
12.75,148.521,14.461,100.113,-0.0017246
12.8,149.021,14.461,100.112,-0.0016827
12.85,149.521,14.46,100.111,-0.0018682
12.9,150.021,14.46,100.11,-0.0015518
12.95,150.522,14.46,100.109,-0.0013715
13,151.022,14.46,100.109,-0.0011908
13.05,151.522,14.46,100.108,-0.0016514
13.1,152.022,14.46,100.108,-0.0010563
13.15,152.522,14.46,100.107,-0.0010115
13.2,153.022,14.46,100.107,-0.0007366
13.25,153.522,14.46,100.106,-0.0004605
13.3,154.022,14.46,100.106,-0.0006914
13.35,154.522,14.46,100.106,-0.0011061
13.4,155.022,14.46,100.105,-0.0009227
13.45,155.522,14.46,100.105,-0.0002766
13.5,156.023,14.46,100.104,-0.0006453
13.55,156.523,14.46,100.104,-0.0001383
13.6,157.023,14.459,100.104,-0.0005069
13.65,157.523,14.459,100.104,-0.0006453
13.7,158.023,14.459,100.103,-0.0002304
13.75,158.523,14.459,100.103,-0.0003685
13.8,159.023,14.459,100.103,-0.0001842
13.85,159.523,14.459,100.103,-0.0005525
13.9,160.023,14.459,100.102,-0.0008285
13.95,160.523,14.459,100.102,-0.0003220
14,161.023,14.459,100.102,-0.0005979
14.05,161.523,14.459,100.101,-0.0003217
14.11,162.024,14.459,100.101,-0.0000460
14.16,162.524,14.459,100.101,-0.0004593
14.21,163.024,14.459,100.101,-0.0001377
14.26,163.524,14.459,100.1,-0.0003674
14.31,164.024,14.459,100.1,-0.0003671
14.36,164.524,14.459,100.1,-0.0009175
14.41,165.024,14.459,100.1,-0.0003211
14.46,165.524,14.459,100.1,-0.0005045
14.51,166.024,14.459,100.1,-0.0006424
14.56,166.524,14.459,100.099,-0.0001376
14.61,167.024,14.459,100.099,-0.0002293
14.66,167.525,14.459,100.099,0.0000000
14.71,168.025,14.459,100.099,-0.0001834
14.76,168.525,14.459,100.099,-0.0006418
14.81,169.025,14.459,100.098,-0.0004125
14.86,169.525,14.459,100.098,0.0000459
14.91,170.025,14.459,100.098,-0.0004126
14.96,170.525,14.459,100.097,-0.0005502
15.01,171.025,14.459,100.097,-0.0008247
15.06,171.525,14.458,100.097,-0.0009166
15.11,172.025,14.458,100.097,-0.0004126
15.16,172.525,14.458,100.096,-0.0005042
15.21,173.026,14.458,100.096,-0.0009627
15.26,173.526,14.458,100.096,-0.0004127
15.31,174.026,14.458,100.096,-0.0005042
15.36,174.526,14.458,100.095,-0.0005501
15.41,175.026,14.458,100.095,-0.0001375
15.46,175.526,14.458,100.095,-0.0004583
15.51,176.026,14.458,100.094,-0.0004582
15.56,176.526,14.458,100.094,-0.0005041
15.61,177.026,14.458,100.094,-0.0005957
15.66,177.526,14.458,100.094,-0.0008246
15.71,178.026,14.458,100.093,-0.0005954
15.76,178.527,14.458,100.093,-0.0005953
15.81,179.027,14.458,100.093,-0.0005038
15.86,179.527,14.458,100.093,-0.0000916
15.91,180.027,14.458,100.092,-0.0002290
15.96,180.527,14.458,100.092,-0.0004122
16.01,181.027,14.458,100.092,-0.0007790
16.06,181.527,14.458,100.091,-0.0004124
16.11,182.027,14.458,100.091,-0.0009170
16.16,182.527,14.458,100.091,-0.0010083
16.21,183.027,14.458,100.09,-0.0006876
16.26,183.527,14.457,100.09,-0.0007791
16.31,184.028,14.457,100.09,-0.0007331
16.36,184.528,14.457,100.09,-0.0006416
16.41,185.028,14.457,100.089,-0.0008706
16.46,185.528,14.457,100.089,-0.0004124
16.51,186.028,14.457,100.089,-0.0004582
16.56,186.528,14.457,100.088,-0.0010533
16.61,187.028,14.457,100.088,-0.0002291
16.66,187.528,14.457,100.088,-0.0005956
16.71,188.028,14.457,100.087,-0.0010081
16.76,188.528,14.457,100.087,-0.0006411
16.81,189.028,14.457,100.086,-0.0012827
16.86,189.528,14.457,100.086,-0.0006410
16.91,190.029,14.457,100.086,-0.0009618
16.96,190.529,14.457,100.085,-0.0006868
17.01,191.029,14.457,100.085,-0.0008244
17.06,191.529,14.457,100.085,-0.0007788
17.11,192.029,14.457,100.084,-0.0005497
17.16,192.529,14.457,100.084,-0.0008708
17.21,193.029,14.457,100.084,-0.0005043
17.26,193.529,14.456,100.083,-0.0005961
17.31,194.029,14.456,100.083,-0.0003665
17.36,194.529,14.456,100.082,-0.0005501
17.41,195.029,14.456,100.082,-0.0006874
17.46,195.53,14.456,100.082,-0.0008253
17.51,196.03,14.456,100.081,-0.0007791
17.56,196.53,14.456,100.081,-0.0007333
17.61,197.03,14.456,100.081,-0.0008706
17.66,197.53,14.456,100.08,-0.0005958
17.71,198.03,14.456,100.08,-0.0007333
17.76,198.53,14.456,100.079,-0.0006873
17.81,199.03,14.456,100.079,-0.0006871
17.86,199.53,14.456,100.079,-0.0007791
17.91,200.03,14.456,100.078,-0.0009163
17.96,200.53,14.456,100.078,-0.0013287
18.01,201.031,14.456,100.077,-0.0005955
18.06,201.531,14.456,100.077,-0.0005955
18.11,202.031,14.456,100.077,-0.0008245
18.16,202.531,14.455,100.076,-0.0006410
18.21,203.031,14.455,100.076,-0.0006407
18.26,203.531,14.455,100.076,-0.0003206
18.31,204.031,14.455,100.075,-0.0005496
18.36,204.531,14.455,100.075,-0.0003663
18.41,205.031,14.455,100.075,-0.0010531
18.46,205.531,14.455,100.074,-0.0008242
18.51,206.031,14.455,100.074,-0.0010531
18.56,206.532,14.455,100.073,-0.0010075
18.61,207.032,14.455,100.073,-0.0009617
18.66,207.532,14.455,100.073,-0.0011907
18.71,208.032,14.455,100.072,-0.0008244
18.76,208.532,14.455,100.072,-0.0009615
18.81,209.032,14.455,100.071,-0.0009161
18.86,209.532,14.455,100.071,-0.0008245
18.91,210.032,14.455,100.07,-0.0007333
18.96,210.532,14.455,100.07,-0.0004585
19.01,211.032,14.455,100.07,-0.0007332
19.06,211.532,14.454,100.069,-0.0005498
19.11,212.033,14.454,100.069,-0.0007789
19.16,212.533,14.454,100.068,-0.0008248
19.21,213.033,14.454,100.068,-0.0009163
19.26,213.533,14.454,100.067,-0.0008247
19.31,214.033,14.454,100.067,-0.0005955
19.36,214.533,14.454,100.067,-0.0006413
19.41,215.033,14.454,100.066,-0.0010077
19.46,215.533,14.454,100.066,-0.0010994
19.51,216.033,14.454,100.065,-0.0010076
19.56,216.533,14.454,100.065,-0.0013282
19.61,217.033,14.454,100.064,-0.0010534
19.66,217.533,14.454,100.064,-0.0013284
19.71,218.034,14.454,100.063,-0.0004124
19.76,218.534,14.454,100.063,-0.0015121
19.81,219.034,14.453,100.062,-0.0010544
19.86,219.534,14.453,100.062,-0.0009631
19.91,220.034,14.453,100.061,-0.0005504
19.96,220.534,14.453,100.061,-0.0011465
20.01,221.034,14.453,100.06,-0.0005503
20.06,221.534,14.453,100.06,-0.0008253
20.11,222.034,14.453,100.06,-0.0004585
20.16,222.534,14.453,100.059,-0.0006420
20.21,223.034,14.453,100.059,-0.0009174
20.26,223.535,14.453,100.058,-0.0009174
20.31,224.035,14.453,100.058,-0.0007338
20.36,224.535,14.453,100.057,-0.0007792
20.41,225.035,14.453,100.057,-0.0011921
20.46,225.535,14.453,100.056,-0.0011463
20.51,226.035,14.453,100.056,-0.0009168
20.57,226.535,14.452,100.055,-0.0008708
20.62,227.035,14.452,100.055,-0.0015120
20.67,227.535,14.452,100.054,-0.0009622
20.72,228.035,14.452,100.054,-0.0010544
20.77,228.535,14.452,100.053,-0.0011001
20.82,229.036,14.452,100.053,-0.0012374
20.87,229.536,14.452,100.052,-0.0009168
20.92,230.036,14.452,100.052,-0.0009168
20.97,230.536,14.452,100.052,-0.0010080
21.02,231.036,14.452,100.051,-0.0010078
21.07,231.536,14.452,100.051,-0.0013288
21.12,232.036,14.452,100.05,-0.0005955
21.17,232.536,14.452,100.05,-0.0011909
21.22,233.036,14.452,100.049,-0.0006410
21.27,233.536,14.451,100.049,-0.0010994
21.32,234.036,14.451,100.048,-0.0004581
21.37,234.537,14.451,100.048,-0.0010078
21.42,235.037,14.451,100.047,-0.0007786
21.47,235.537,14.451,100.046,-0.0013281
21.52,236.037,14.451,100.046,-0.0010534
21.57,236.537,14.451,100.045,-0.0009162
21.62,237.037,14.451,100.045,-0.0010078
21.67,237.537,14.451,100.044,-0.0013284
21.72,238.037,14.451,100.044,-0.0012366
21.77,238.537,14.451,100.043,-0.0014656
21.82,239.037,14.451,100.043,-0.0014203
21.87,239.537,14.451,100.042,-0.0013736
21.92,240.038,14.45,100.041,-0.0013740
21.97,240.538,14.45,100.041,-0.0010996
22.02,241.038,14.45,100.04,-0.0009163
22.07,241.538,14.45,100.04,-0.0012832
22.12,242.038,14.45,100.039,-0.0007791
22.17,242.538,14.45,100.039,-0.0011451
22.22,243.038,14.45,100.038,-0.0010073
22.27,243.538,14.45,100.037,-0.0009159
22.32,244.038,14.45,100.037,-0.0010996
22.37,244.538,14.45,100.036,-0.0013740
22.42,245.038,14.45,100.036,-0.0012365
22.47,245.538,14.45,100.035,-0.0009618
22.52,246.039,14.449,100.034,-0.0012361
22.57,246.539,14.449,100.034,-0.0012366
22.62,247.039,14.449,100.033,-0.0013743
22.67,247.539,14.449,100.033,-0.0013740
22.72,248.039,14.449,100.032,-0.0013742
22.77,248.539,14.449,100.031,-0.0016032
22.82,249.039,14.449,100.03,-0.0015572
22.87,249.539,14.449,100.03,-0.0009165
22.92,250.039,14.449,100.029,-0.0012826
22.97,250.539,14.449,100.029,-0.0011910
23.02,251.039,14.448,100.028,-0.0016953
23.07,251.54,14.448,100.027,-0.0013284
23.12,252.04,14.448,100.027,-0.0015575
23.17,252.54,14.448,100.026,-0.0012826
23.22,253.04,14.448,100.025,-0.0021530
23.27,253.54,14.448,100.024,-0.0013282
23.32,254.04,14.448,100.024,-0.0014194
23.37,254.54,14.448,100.023,-0.0010528
23.42,255.04,14.448,100.023,-0.0015572
23.47,255.54,14.448,100.022,-0.0009618
23.52,256.04,14.448,100.021,-0.0013290
23.57,256.54,14.447,100.021,-0.0013746
23.62,257.041,14.447,100.02,-0.0011911
23.67,257.541,14.447,100.019,-0.0011453
23.72,258.041,14.447,100.019,-0.0010079
23.77,258.541,14.447,100.018,-0.0016955
23.82,259.041,14.447,100.017,-0.0011454
23.87,259.541,14.447,100.016,-0.0008246
23.92,260.041,14.447,100.016,-0.0012829
23.97,260.541,14.447,100.015,-0.0012828
24.02,261.041,14.447,100.014,-0.0014201
24.07,261.541,14.446,100.013,-0.0014655
24.12,262.041,14.446,100.013,-0.0014660
24.17,262.542,14.446,100.012,-0.0016041
24.22,263.042,14.446,100.011,-0.0018324
24.27,263.542,14.446,100.01,-0.0016492
24.32,264.042,14.446,100.01,-0.0016032
24.37,264.542,14.446,100.009,-0.0016035
24.42,265.042,14.446,100.008,-0.0016493
24.47,265.542,14.446,100.007,-0.0020153
24.52,266.042,14.445,100.007,-0.0017408
24.57,266.542,14.445,100.006,-0.0017866
24.62,267.042,14.445,100.005,-0.0013278
24.67,267.542,14.445,100.004,-0.0018773
24.72,268.043,14.445,100.003,-0.0016026
24.77,268.543,14.445,100.002,-0.0012821
24.82,269.043,14.445,100.002,-0.0016016
24.87,269.543,14.445,100.001,-0.0015568
24.92,270.043,14.444,100,-0.0017399
24.97,270.543,14.444,99.999,-0.0012821
25.02,271.043,14.444,99.998,-0.0016026
25.07,271.543,14.444,99.997,-0.0010531
25.12,272.043,14.444,99.997,-0.0021532
25.17,272.543,14.444,99.996,-0.0016493
25.22,273.043,14.444,99.995,-0.0019700
25.27,273.543,14.444,99.994,-0.0016941
25.32,274.044,14.443,99.993,-0.0021531
25.37,274.544,14.443,99.992,-0.0021062
25.42,275.044,14.443,99.991,-0.0014202
25.47,275.544,14.443,99.991,-0.0020604
25.52,276.044,14.443,99.99,-0.0019231
25.57,276.544,14.443,99.989,-0.0013736
25.62,277.044,14.443,99.988,-0.0016494
25.67,277.544,14.443,99.987,-0.0019239
25.72,278.044,14.442,99.986,-0.0016026
25.77,278.544,14.442,99.985,-0.0016026
25.82,279.044,14.442,99.984,-0.0018773
25.87,279.545,14.442,99.983,-0.0015568
25.92,280.045,14.442,99.982,-0.0019697
25.97,280.545,14.442,99.982,-0.0016495
26.02,281.045,14.442,99.981,-0.0023831
26.07,281.545,14.442,99.98,-0.0019237
26.12,282.045,14.441,99.979,-0.0020604
26.17,282.545,14.441,99.978,-0.0020616
26.22,283.045,14.441,99.977,-0.0018763
26.27,283.545,14.441,99.976,-0.0020604
26.32,284.045,14.441,99.975,-0.0016026
26.37,284.545,14.441,99.974,-0.0019689
26.42,285.046,14.441,99.973,-0.0017409
26.47,285.546,14.44,99.972,-0.0018315
26.52,286.046,14.44,99.971,-0.0020612
26.57,286.546,14.44,99.97,-0.0020604
26.62,287.046,14.44,99.969,-0.0022906
26.67,287.546,14.44,99.968,-0.0021986
26.72,288.046,14.44,99.967,-0.0023823
26.77,288.546,14.439,99.966,-0.0020619
26.82,289.046,14.439,99.965,-0.0021082
26.87,289.546,14.439,99.964,-0.0022477
26.92,290.046,14.439,99.963,-0.0021998
26.97,290.547,14.439,99.962,-0.0018773
27.02,291.047,14.439,99.961,-0.0024277
27.07,291.547,14.439,99.959,-0.0018315
27.12,292.047,14.438,99.958,-0.0022902
27.17,292.547,14.438,99.957,-0.0017404
27.22,293.047,14.438,99.956,-0.0026099
27.27,293.547,14.438,99.955,-0.0018315
27.32,294.047,14.438,99.954,-0.0018315
27.37,294.547,14.438,99.953,-0.0022902
27.42,295.047,14.437,99.952,-0.0021069
27.47,295.547,14.437,99.951,-0.0021531
27.52,296.048,14.437,99.95,-0.0024280
27.57,296.548,14.437,99.948,-0.0026557
27.62,297.048,14.437,99.947,-0.0025197
27.67,297.548,14.437,99.946,-0.0021528
27.72,298.048,14.437,99.945,-0.0027941
27.77,298.548,14.436,99.944,-0.0022907
27.82,299.048,14.436,99.943,-0.0021069
27.87,299.548,14.436,99.941,-0.0022447
27.92,300.048,14.436,99.94,-0.0020147
27.97,300.548,14.436,99.939,-0.0020616
28.02,301.048,14.435,99.938,-0.0022448
28.07,301.548,14.435,99.937,-0.0023352
28.12,302.049,14.435,99.936,-0.0022436
28.17,302.549,14.435,99.934,-0.0022894
28.22,303.049,14.435,99.933,-0.0028388
28.27,303.549,14.435,99.932,-0.0022902
28.32,304.049,14.434,99.931,-0.0027025
28.37,304.549,14.434,99.93,-0.0026572
28.42,305.049,14.434,99.928,-0.0027507
28.47,305.549,14.434,99.927,-0.0023830
28.52,306.049,14.434,99.926,-0.0021074
28.57,306.549,14.434,99.925,-0.0027481
28.62,307.049,14.433,99.923,-0.0021062
28.67,307.55,14.433,99.922,-0.0025622
28.72,308.05,14.433,99.921,-0.0022880
28.77,308.55,14.433,99.92,-0.0029289
28.82,309.05,14.433,99.918,-0.0026099
28.87,309.55,14.432,99.917,-0.0021501
28.92,310.05,14.432,99.916,-0.0026543
28.97,310.55,14.432,99.914,-0.0021970
29.02,311.05,14.432,99.913,-0.0027001
29.07,311.55,14.432,99.912,-0.0026572
29.12,312.05,14.432,99.91,-0.0032986
29.17,312.55,14.431,99.909,-0.0025651
29.22,313.051,14.431,99.908,-0.0027957
29.27,313.551,14.431,99.906,-0.0027966
29.32,314.051,14.431,99.905,-0.0029789
29.37,314.551,14.431,99.904,-0.0028403
29.42,315.051,14.43,99.902,-0.0029777
29.47,315.551,14.43,99.901,-0.0030693
29.52,316.051,14.43,99.899,-0.0027015
29.57,316.551,14.43,99.898,-0.0029762
29.62,317.051,14.43,99.897,-0.0023352
29.67,317.551,14.429,99.895,-0.0030203
29.72,318.051,14.429,99.894,-0.0025183
29.77,318.552,14.429,99.893,-0.0027023
29.82,319.052,14.429,99.891,-0.0027930
29.87,319.552,14.429,99.89,-0.0024725
29.92,320.052,14.428,99.888,-0.0028867
29.97,320.552,14.428,99.887,-0.0028405
30.02,321.052,14.428,99.886,-0.0025197
30.07,321.552,14.428,99.884,-0.0025649
30.12,322.052,14.428,99.883,-0.0032992
30.17,322.552,14.427,99.882,-0.0030694
30.22,323.052,14.427,99.88,-0.0032509
30.27,323.552,14.427,99.879,-0.0025656
30.32,324.053,14.427,99.878,-0.0028846
30.37,324.553,14.427,99.876,-0.0031605
30.42,325.053,14.426,99.875,-0.0031606
30.47,325.553,14.426,99.873,-0.0032984
30.52,326.053,14.426,99.872,-0.0029304
30.57,326.553,14.426,99.87,-0.0029762
30.62,327.053,14.426,99.869,-0.0031154
30.67,327.553,14.425,99.867,-0.0027926
30.72,328.053,14.425,99.866,-0.0022894
30.77,328.553,14.425,99.865,-0.0022424
30.82,329.053,14.425,99.863,-0.0030220
30.87,329.553,14.424,99.862,-0.0025626
30.92,330.054,14.424,99.86,-0.0026099
30.97,330.554,14.424,99.859,-0.0025173
31.02,331.054,14.424,99.857,-0.0030220
31.07,331.554,14.424,99.856,-0.0031593
31.12,332.054,14.423,99.854,-0.0029762
31.17,332.554,14.423,99.853,-0.0036642
31.22,333.054,14.423,99.851,-0.0027473
31.27,333.554,14.423,99.849,-0.0036172
31.32,334.054,14.422,99.848,-0.0028830
31.37,334.554,14.422,99.846,-0.0037989
31.42,335.054,14.422,99.845,-0.0030665
31.47,335.555,14.422,99.843,-0.0032949
31.52,336.055,14.422,99.842,-0.0029725
31.57,336.555,14.421,99.84,-0.0032479
31.62,337.055,14.421,99.839,-0.0029288
31.67,337.555,14.421,99.837,-0.0034766
31.72,338.055,14.421,99.835,-0.0030660
31.77,338.555,14.42,99.834,-0.0032491
31.82,339.055,14.42,99.832,-0.0030668
31.87,339.555,14.42,99.831,-0.0029287
31.92,340.055,14.42,99.829,-0.0027024
31.97,340.555,14.42,99.828,-0.0032051
32.02,341.056,14.419,99.826,-0.0028396
32.07,341.556,14.419,99.825,-0.0036192
32.12,342.056,14.419,99.823,-0.0027473
32.17,342.556,14.419,99.821,-0.0028388
32.22,343.056,14.418,99.82,-0.0027930
32.27,343.556,14.418,99.818,-0.0033424
32.32,344.056,14.418,99.816,-0.0027489
32.37,344.556,14.418,99.815,-0.0035256
32.42,345.056,14.417,99.813,-0.0029762
32.47,345.556,14.417,99.812,-0.0032509
32.52,346.056,14.417,99.81,-0.0031136
32.57,346.557,14.417,99.809,-0.0039377
32.62,347.057,14.417,99.807,-0.0029747
32.67,347.557,14.416,99.805,-0.0033883
32.72,348.057,14.416,99.804,-0.0033871
32.77,348.557,14.416,99.802,-0.0037987
32.82,349.057,14.416,99.8,-0.0036152
32.87,349.557,14.415,99.799,-0.0037969
32.92,350.057,14.415,99.797,-0.0032492
32.97,350.557,14.415,99.795,-0.0037088
33.02,351.057,14.415,99.793,-0.0030209
33.07,351.557,14.414,99.792,-0.0041667
33.12,352.058,14.414,99.79,-0.0035714
33.17,352.558,14.414,99.788,-0.0032967
33.22,353.058,14.414,99.786,-0.0033864
33.27,353.558,14.413,99.785,-0.0037991
33.32,354.058,14.413,99.783,-0.0033870
33.37,354.558,14.413,99.781,-0.0036153
33.42,355.058,14.413,99.779,-0.0031582
33.47,355.558,14.412,99.777,-0.0035236
33.52,356.058,14.412,99.775,-0.0034787
33.57,356.558,14.412,99.774,-0.0037075
33.62,357.058,14.411,99.772,-0.0035243
33.67,357.558,14.411,99.77,-0.0039362
33.72,358.059,14.411,99.768,-0.0037068
33.77,358.559,14.411,99.766,-0.0042582
33.82,359.059,14.41,99.764,-0.0038919
33.87,359.559,14.41,99.762,-0.0041209
33.92,360.059,14.41,99.76,-0.0043040
33.97,360.559,14.409,99.758,-0.0049477
34.02,361.059,14.409,99.756,-0.0037075
34.07,361.559,14.409,99.754,-0.0042101
34.12,362.059,14.409,99.751,-0.0043040
34.17,362.559,14.408,99.749,-0.0046678
34.22,363.059,14.408,99.747,-0.0043040
34.27,363.56,14.408,99.745,-0.0041643
34.32,364.06,14.407,99.742,-0.0042544
34.37,364.56,14.407,99.74,-0.0043924
34.42,365.06,14.407,99.738,-0.0047619
34.47,365.56,14.406,99.735,-0.0048509
34.52,366.06,14.406,99.733,-0.0053571
34.57,366.56,14.405,99.73,-0.0049423
34.62,367.06,14.405,99.728,-0.0049881
34.67,367.56,14.405,99.725,-0.0047637
34.72,368.06,14.404,99.722,-0.0049927
34.77,368.56,14.404,99.72,-0.0051282
34.82,369.061,14.404,99.717,-0.0058150
34.87,369.561,14.403,99.714,-0.0053144
34.92,370.061,14.403,99.711,-0.0058641
34.97,370.561,14.402,99.709,-0.0054976
35.02,371.061,14.402,99.706,-0.0063220
35.07,371.561,14.402,99.703,-0.0059524
35.12,372.061,14.401,99.7,-0.0063645
35.17,372.561,14.401,99.697,-0.0061813
35.22,373.061,14.4,99.694,-0.0065511
35.27,373.561,14.4,99.69,-0.0066850
35.32,374.061,14.399,99.687,-0.0070513
35.37,374.562,14.399,99.684,-0.0064560
35.42,375.062,14.398,99.68,-0.0072762
35.47,375.562,14.398,99.677,-0.0071456
35.52,376.062,14.397,99.673,-0.0074634
35.57,376.562,14.397,99.67,-0.0070055
35.62,377.062,14.396,99.666,-0.0072843
35.67,377.562,14.396,99.662,-0.0078339
35.72,378.062,14.395,99.658,-0.0073786
35.77,378.562,14.395,99.654,-0.0078369
35.82,379.062,14.394,99.65,-0.0082493
35.87,379.562,14.393,99.646,-0.0086617
35.92,380.063,14.393,99.642,-0.0087487
35.97,380.563,14.392,99.638,-0.0083288
36.02,381.063,14.391,99.633,-0.0093286
36.07,381.563,14.391,99.629,-0.0090917
36.12,382.063,14.39,99.624,-0.0097224
36.17,382.563,14.389,99.619,-0.0093522
36.22,383.063,14.389,99.614,-0.0101658
36.27,383.563,14.388,99.609,-0.0098942
36.32,384.063,14.387,99.604,-0.0100766
36.37,384.563,14.387,99.599,-0.0107208
36.42,385.063,14.386,99.593,-0.0110482
36.47,385.563,14.385,99.588,-0.0115174
36.52,386.064,14.384,99.582,-0.0117459
36.57,386.564,14.383,99.576,-0.0123010
36.62,387.064,14.382,99.57,-0.0127150
36.67,387.564,14.381,99.564,-0.0131339
36.72,388.064,14.381,99.557,-0.0127747
36.77,388.564,14.38,99.551,-0.0138812
36.82,389.064,14.379,99.544,-0.0136114
36.87,389.564,14.378,99.537,-0.0139832
36.92,390.064,14.377,99.53,-0.0137031
36.97,390.564,14.376,99.523,-0.0146654
37.02,391.064,14.374,99.515,-0.0147571
37.07,391.565,14.373,99.508,-0.0151835
37.12,392.065,14.372,99.5,-0.0161262
37.17,392.565,14.371,99.492,-0.0162636
37.22,393.065,14.37,99.483,-0.0171340
37.27,393.565,14.369,99.475,-0.0170788
37.32,394.065,14.367,99.466,-0.0176282
37.37,394.565,14.366,99.457,-0.0183150
37.42,395.065,14.365,99.448,-0.0184066
37.47,395.565,14.363,99.439,-0.0188541
37.52,396.065,14.362,99.429,-0.0191850
37.57,396.565,14.361,99.42,-0.0199176
37.62,397.066,14.359,99.41,-0.0200549
37.67,397.566,14.358,99.399,-0.0214862
37.72,398.066,14.356,99.389,-0.0215778
37.77,398.566,14.355,99.378,-0.0224024
37.82,399.066,14.353,99.367,-0.0225733
37.87,399.566,14.351,99.355,-0.0230972
37.92,400.066,14.35,99.343,-0.0245196
37.97,400.566,14.348,99.331,-0.0246157
38.02,401.066,14.346,99.318,-0.0253431
38.07,401.566,14.344,99.305,-0.0258969
38.12,402.066,14.342,99.292,-0.0271729
38.17,402.567,14.34,99.278,-0.0274624
38.22,403.067,14.338,99.264,-0.0282812
38.27,403.567,14.336,99.25,-0.0286826
38.32,404.067,14.334,99.235,-0.0296485
38.37,404.567,14.332,99.22,-0.0301007
38.42,405.067,14.33,99.205,-0.0310156
38.47,405.567,14.327,99.189,-0.0319304
38.52,406.067,14.325,99.174,-0.0322507
38.57,406.567,14.323,99.158,-0.0325827
38.62,407.067,14.32,99.141,-0.0333333
38.67,407.567,14.318,99.124,-0.0341386
38.72,408.068,14.315,99.106,-0.0346879
38.77,408.568,14.313,99.089,-0.0358320
38.82,409.068,14.31,99.071,-0.0363879
38.87,409.568,14.308,99.052,-0.0370421
38.92,410.068,14.305,99.033,-0.0375458
38.97,410.568,14.302,99.014,-0.0384404
39.02,411.068,14.299,98.994,-0.0400092
39.07,411.568,14.296,98.974,-0.0406444
39.12,412.068,14.293,98.954,-0.0413004
39.17,412.568,14.29,98.933,-0.0425590
39.22,413.068,14.287,98.911,-0.0433906
39.27,413.568,14.284,98.889,-0.0447344
39.32,414.069,14.281,98.867,-0.0455336
39.37,414.569,14.277,98.844,-0.0462657
39.42,415.069,14.274,98.82,-0.0472726
39.47,415.569,14.271,98.796,-0.0484447
39.52,416.069,14.267,98.772,-0.0505490
39.57,416.569,14.263,98.747,-0.0507499
39.62,417.069,14.26,98.721,-0.0521863
39.67,417.569,14.256,98.694,-0.0534114
39.72,418.069,14.252,98.667,-0.0548790
39.77,418.569,14.248,98.64,-0.0560236
39.82,419.069,14.244,98.611,-0.0576254
39.87,419.57,14.24,98.582,-0.0585623
39.92,420.07,14.235,98.553,-0.0603480
39.97,420.57,14.231,98.522,-0.0612862
40.02,421.07,14.226,98.491,-0.0633700
40.07,421.57,14.222,98.459,-0.0640462
40.12,422.07,14.217,98.426,-0.0656593
40.17,422.57,14.212,98.392,-0.0668710
40.22,423.07,14.207,98.358,-0.0690680
40.27,423.57,14.202,98.323,-0.0702653
40.32,424.07,14.197,98.288,-0.0725070
40.37,424.57,14.192,98.251,-0.0755754
40.42,425.071,14.186,98.212,-0.0768282
40.47,425.571,14.18,98.172,-0.0867316
40.52,426.071,14.174,98.128,-0.0859242
40.57,426.571,14.168,98.083,-0.0921389
40.62,427.071,14.161,98.036,-0.0919151
40.67,427.571,14.154,97.987,-0.1073000
40.72,428.071,14.146,97.935,-0.1026900
40.77,428.571,14.138,97.881,-0.1188020
40.82,429.071,14.13,97.825,-0.1164650
40.87,429.571,14.122,97.765,-0.1255480
40.92,430.071,14.113,97.704,-0.1258940
40.97,430.572,14.104,97.642,-0.1279500
41.02,431.072,14.094,97.576,-0.1326620
41.07,431.572,14.085,97.509,-0.1258010
41.12,432.072,14.075,97.441,-0.1354570
41.17,432.572,14.065,97.371,-0.1419550
41.22,433.072,14.054,97.297,-0.1436410
41.27,433.572,14.043,97.223,-0.1489100
41.32,434.072,14.032,97.146,-0.1558670
41.37,434.572,14.021,97.067,-0.1646390
41.42,435.072,14.009,96.985,-0.1694420
41.47,435.572,13.997,96.903,-0.1763640
41.52,436.073,13.984,96.814,-0.1796250
41.57,436.573,13.971,96.721,-0.1914210
41.62,437.073,13.957,96.627,-0.1842870
41.67,437.573,13.944,96.532,-0.1877180
41.72,438.073,13.929,96.433,-0.2041260
41.77,438.573,13.913,96.323,-0.2227810
41.82,439.073,13.895,96.199,-0.2596530
41.87,439.573,13.876,96.061,-0.2874660
41.92,440.073,13.853,95.907,-0.3189650
41.97,440.573,13.829,95.742,-0.3370420
42.02,441.073,13.803,95.561,-0.3730510
42.07,441.573,13.775,95.368,-0.3961780
42.12,442.074,13.746,95.167,-0.4041740
42.17,442.574,13.718,94.972,-0.4046820
42.22,443.074,13.687,94.754,-0.4426300
42.27,443.574,13.655,94.532,-0.4797550
42.32,444.074,13.622,94.306,-0.4521720
42.37,444.574,13.588,94.072,-0.4706420
42.42,445.074,13.554,93.832,-0.5080640
42.47,445.574,13.517,93.581,-0.5135630
42.52,446.074,13.479,93.315,-0.5419870
42.57,446.574,13.439,93.041,-0.5299220
42.62,447.074,13.399,92.759,-0.5709990
42.67,447.575,13.356,92.465,-0.5819760
42.72,448.075,13.312,92.159,-0.5997050
42.77,448.575,13.265,91.835,-0.6496310
42.82,449.075,13.215,91.489,-0.7092200
42.87,449.575,13.163,91.128,-0.7322250
42.92,450.075,13.107,90.743,-0.7562420
42.97,450.575,13.048,90.336,-0.8699290
43.02,451.075,12.985,89.898,-0.9019230
43.07,451.575,12.918,89.429,-0.9476520
43.12,452.075,12.848,88.95,-0.9714780
43.17,452.575,12.783,88.498,-0.9688670
43.22,453.076,12.712,88.005,-1.09237
43.27,453.576,12.639,87.498,-0.7723140
43.32,454.076,12.584,87.117,-0.7948350
43.37,454.576,12.523,86.695,-0.8663140
43.42,455.076,12.454,86.223,-0.9848330
43.47,455.576,12.381,85.715,-1.04394
43.52,456.076,12.301,85.164,-1.0657
43.57,456.576,12.219,84.591,-1.22811
43.62,457.076,12.122,83.918,-1.46843
43.67,457.576,12.019,83.207,-1.39236
43.72,458.076,11.906,82.424,-1.64092
43.77,458.577,11.781,81.562,-1.98216
43.82,459.077,11.647,80.632,-1.79117
43.88,459.577,11.512,79.702,-1.80071
43.93,460.077,11.377,78.767,-1.87294
43.98,460.577,11.238,77.802,-1.94452
44.03,461.077,11.093,76.795,-2.0683
44.08,461.577,10.941,75.745,-2.12105
44.13,462.077,10.784,74.66,-2.08935
44.18,462.577,10.628,73.581,-2.18092
44.23,463.077,10.465,72.448,-2.39194
44.28,463.577,10.294,71.268,-2.47571
44.33,464.078,10.119,70.057,-2.40781
44.38,464.578,9.934,68.773,-2.7596
44.43,465.078,9.749,67.495,-2.68444
44.48,465.578,9.55,66.114,-2.87861
44.53,466.078,9.33,64.59,-3.15944
44.58,466.578,9.1,62.997,-3.27357
44.63,467.078,8.854,61.296,-2.41935
44.68,467.578,8.663,59.973,-3.3643
44.73,468.078,8.429,58.356,-3.0457
44.78,468.578,8.204,56.794,-3.75745
44.83,469.078,8.017,55.5,-2.53224
44.87,469.578,7.822,54.152,-2.9511
44.92,470.079,7.607,52.663,-3.06209
44.97,470.579,7.368,51.008,-3.32803
45.02,471.079,7.124,49.318,-3.48649
45.07,471.579,6.855,47.456,-4.08213
45.12,472.079,6.58,45.557,-3.64615
45.17,472.579,6.313,43.704,-3.47049
45.22,473.079,6.049,41.875,-3.73202
45.27,473.579,5.781,40.02,-3.73247
45.33,474.079,5.479,37.929,-4.09822
45.38,474.579,5.178,35.846,-4.21996
45.43,475.079,4.855,33.611,-4.57542
45.48,475.58,4.519,31.282,-3.03504
45.53,476.08,4.291,29.709,-3.35941
45.58,476.58,4.037,27.946,-3.60758
45.62,477.08,3.78,26.167,-3.50261
45.67,477.58,3.529,24.434,-3.54897
45.72,478.08,3.267,22.618,-3.59187
45.77,478.58,3.003,20.793,-3.68037
45.82,479.08,2.739,18.962,-3.67354
45.87,479.58,2.494,17.268,-3.25574
45.92,480.08,2.248,15.562,-3.29242
45.97,480.58,2.008,13.905,-3.25302
46.02,481.081,1.776,12.294,-3.13
46.07,481.581,1.552,10.745,-3.04162
46.12,482.081,1.339,9.273,-2.93564
46.17,482.581,1.137,7.871,-2.63136
46.22,483.081,0.9560000,6.616,-2.35931
46.27,483.581,0.8010000,5.544,-2.10389
46.32,484.081,0.6580000,4.552,-1.84599
46.37,484.581,0.5280000,3.657,-1.69812
46.42,485.081,0.4170000,2.889,-1.44874
46.47,485.581,0.3180000,2.203,-1.25628
46.52,486.081,0.2380000,1.65,-0.9841660
46.57,486.582,0.1740000,1.206,-0.7812510
46.62,487.082,0.1230000,0.8540000,-0.6217770
46.66,487.582,0.0880000,0.6100000,-0.4210030
46.71,488.082,0.0630000,0.4360000,-0.2860740
46.76,488.582,0.0470000,0.3250000,-0.1800470
46.81,489.082,0.0370000,0.2540000,-0.1035950
46.86,489.582,0.0310000,0.2130000,-0.0563910
46.91,490.082,0.0280000,0.1910000,-0.0343445
46.96,490.582,0.0250000,0.1730000,-0.0363129
47.01,491.082,0.0220000,0.1550000,-0.0335481
47.06,491.582,0.0200000,0.1390000,-0.0293449
47.11,492.083,0.0180000,0.1260000,-0.0241542
47.17,492.583,0.0170000,0.1150000,-0.0189091
47.22,493.083,0.0150000,0.1070000,-0.0147409
47.27,493.583,0.0140000,0.1000000,-0.0110145
47.32,494.083,0.0140000,0.0950000,-0.0090092
47.37,494.583,0.0130000,0.0910000,-0.0072180
47.42,495.083,0.0130000,0.0880000,-0.0051988
47.47,495.583,0.0120000,0.0860000,-0.0042176
47.52,496.083,0.0120000,0.0840000,-0.0030584
47.57,496.583,0.0120000,0.0820000,-0.0026975
47.62,497.083,0.0120000,0.0810000,-0.0016233
47.67,497.583,0.0120000,0.0800000,-0.0010986
47.72,498.084,0.0120000,0.0800000,-0.0009574
47.77,498.584,0.0110000,0.0790000,-0.0006520
47.82,499.084,0.0110000,0.0790000,-0.0004955
47.87,499.584,0.0110000,0.0790000,-0.0005284
47.92,500.084,0.0110000,0.0790000,-0.0004881
47.97,500.584,0.0110000,0.0780000,-0.0004032
48.02,501.084,0.0110000,0.0780000,-0.0000718
48.07,501.584,0.0110000,0.0780000,0.0001712
48.12,502.084,0.0110000,0.0780000,0.0001848
48.17,502.584,0.0110000,0.0780000,-0.0000900
48.22,503.084,0.0110000,0.0780000,-0.0002496
48.27,503.585,0.0110000,0.0790000,-0.0000922
48.32,504.085,0.0110000,0.0790000,0.0001130
48.37,504.585,0.0110000,0.0790000,-0.0000734
48.42,505.085,0.0110000,0.0790000,-0.0001102
48.47,505.585,0.0110000,0.0790000,0.0000169
48.52,506.085,0.0110000,0.0790000,0.0002978
48.57,506.585,0.0110000,0.0790000,0.0001082
48.62,507.085,0.0110000,0.0790000,0.0004156
48.67,507.585,0.0110000,0.0790000,0.0002444
48.72,508.085,0.0110000,0.0790000,0.0004271
48.77,508.585,0.0110000,0.0790000,0.0004752
48.82,509.086,0.0110000,0.0800000,0.0000274
48.87,509.586,0.0110000,0.0800000,0.0001297
48.92,510.086,0.0120000,0.0800000,0.0002063
48.97,510.586,0.0120000,0.0800000,0.0001629
49.02,511.086,0.0120000,0.0800000,0.0004262
49.07,511.586,0.0120000,0.0800000,0.0002039
49.12,512.086,0.0120000,0.0800000,0.0005167
49.17,512.586,0.0120000,0.0800000,-0.0000896
49.22,513.086,0.0120000,0.0800000,0.0000866
49.27,513.586,0.0120000,0.0810000,0.0000492
49.32,514.086,0.0120000,0.0810000,0.0003341
49.37,514.587,0.0120000,0.0810000,-0.0000275
49.42,515.087,0.0120000,0.0810000,0.0002336
49.47,515.587,0.0120000,0.0810000,-0.0001481
49.52,516.087,0.0120000,0.0810000,0.0001978
49.57,516.587,0.0120000,0.0810000,0.0000747
49.62,517.087,0.0120000,0.0810000,0.0002528
49.67,517.587,0.0120000,0.0810000,0.0000850
49.72,518.087,0.0120000,0.0810000,0.0002688
49.77,518.587,0.0120000,0.0810000,0.0000448
49.82,519.087,0.0120000,0.0810000,-0.0001182
49.87,519.587,0.0120000,0.0810000,0.0002900
49.92,520.088,0.0120000,0.0820000,-0.0001198
49.97,520.588,0.0120000,0.0820000,0.0001494
50.02,521.088,0.0120000,0.0820000,0.0000194
50.07,521.588,0.0120000,0.0820000,0.0003107
50.12,522.088,0.0120000,0.0820000,-0.0000295
50.17,522.588,0.0120000,0.0820000,0.0000303
50.22,523.088,0.0120000,0.0820000,0.0004523
50.27,523.588,0.0120000,0.0820000,0.0006184
50.32,524.088,0.0120000,0.0820000,0.0003189
50.37,524.588,0.0120000,0.0820000,-0.0000808
50.42,525.088,0.0120000,0.0820000,0.0004648
50.47,525.588,0.0120000,0.0830000,0.0006274
50.52,526.089,0.0120000,0.0830000,0.0005108
50.57,526.589,0.0120000,0.0830000,0.0000137
50.62,527.089,0.0120000,0.0830000,0.0000375
50.67,527.589,0.0120000,0.0830000,0.0002900
50.72,528.089,0.0120000,0.0830000,0.0000113
50.77,528.589,0.0120000,0.0830000,0.0000211
50.82,529.089,0.0120000,0.0830000,0.0001284
50.87,529.589,0.0120000,0.0830000,-0.0001044
50.92,530.089,0.0120000,0.0830000,0.0000182
50.97,530.589,0.0120000,0.0830000,-0.0000187
51.02,531.089,0.0120000,0.0830000,0.0001592
51.07,531.59,0.0120000,0.0830000,0.0000403
51.12,532.09,0.0120000,0.0830000,0.0001295
51.17,532.59,0.0120000,0.0830000,0.0002190
51.22,533.09,0.0120000,0.0830000,0.0002684
51.27,533.59,0.0120000,0.0830000,0.0003798
51.32,534.09,0.0120000,0.0830000,0.0005531
51.37,534.59,0.0120000,0.0840000,-0.0001015
51.42,535.09,0.0120000,0.0840000,0.0004381
51.47,535.59,0.0120000,0.0840000,0.0004886
51.52,536.09,0.0120000,0.0840000,0.0003938
51.57,536.59,0.0120000,0.0840000,-0.0003596
51.62,537.091,0.0120000,0.0840000,0.0000220
51.67,537.591,0.0120000,0.0840000,-0.0000993
51.72,538.091,0.0120000,0.0840000,0.0003473
51.77,538.591,0.0120000,0.0840000,-0.0001027
51.82,539.091,0.0120000,0.0840000,0.0000772
51.87,539.591,0.0120000,0.0840000,-0.0000270
51.92,540.091,0.0120000,0.0840000,0.0004285
51.97,540.591,0.0120000,0.0840000,0.0000255
52.02,541.091,0.0120000,0.0840000,0.0002124
52.07,541.591,0.0120000,0.0840000,-0.0001416
52.12,542.091,0.0120000,0.0840000,0.0005892
52.17,542.592,0.0120000,0.0850000,0.0009700
52.22,543.092,0.0120000,0.0850000,0.0003212
52.27,543.592,0.0120000,0.0850000,-0.0000545
52.32,544.092,0.0120000,0.0850000,0.0005435
52.37,544.592,0.0120000,0.0850000,0.0003933
52.42,545.092,0.0120000,0.0850000,0.0000377
52.47,545.592,0.0120000,0.0850000,0.0001469
52.52,546.092,0.0120000,0.0850000,0.0000439
52.57,546.592,0.0120000,0.0860000,-0.0000453
52.62,547.092,0.0120000,0.0860000,-0.0003138
52.67,547.592,0.0120000,0.0860000,-0.0001193
52.72,548.093,0.0120000,0.0860000,0.0004134
52.77,548.593,0.0120000,0.0860000,-0.0000266
52.82,549.093,0.0120000,0.0860000,0.0001820
52.87,549.593,0.0120000,0.0860000,0.0000352
52.92,550.093,0.0120000,0.0860000,0.0001154
52.97,550.593,0.0120000,0.0860000,0.0003074
53.02,551.093,0.0120000,0.0860000,0.0002900
53.07,551.593,0.0120000,0.0870000,0.0001419
53.12,552.093,0.0130000,0.0870000,0.0001642
53.17,552.593,0.0130000,0.0870000,0.0000936
53.22,553.093,0.0130000,0.0870000,0.0003514
53.27,553.593,0.0130000,0.0870000,0.0002462
53.32,554.094,0.0130000,0.0870000,0.0002525
53.37,554.594,0.0130000,0.0870000,0.0002525
53.42,555.094,0.0130000,0.0870000,0.0001981
53.47,555.594,0.0130000,0.0870000,0.0001241
53.52,556.094,0.0130000,0.0880000,0.0002966
53.57,556.594,0.0130000,0.0880000,0.0001170
53.62,557.094,0.0130000,0.0880000,0.0004481
53.67,557.594,0.0130000,0.0880000,0.0002039
53.72,558.094,0.0130000,0.0880000,0.0001388
53.77,558.594,0.0130000,0.0880000,0.0006972
53.82,559.094,0.0130000,0.0880000,0.0006558
53.87,559.595,0.0130000,0.0890000,0.0007580
53.92,560.095,0.0130000,0.0890000,0.0004337
53.97,560.595,0.0130000,0.0890000,0.0006278
54.02,561.095,0.0130000,0.0890000,0.0006220
54.07,561.595,0.0130000,0.0890000,0.0005357
54.12,562.095,0.0130000,0.0900000,0.0002666
54.17,562.595,0.0130000,0.0900000,0.0003902
54.22,563.095,0.0130000,0.0900000,0.0005818
54.27,563.595,0.0130000,0.0900000,0.0004042
54.32,564.095,0.0130000,0.0910000,0.0003060
54.37,564.595,0.0130000,0.0910000,0.0000952
54.42,565.096,0.0130000,0.0910000,0.0001074
54.47,565.596,0.0130000,0.0910000,0.0003516
54.52,566.096,0.0130000,0.0910000,-0.0000675
54.57,566.596,0.0130000,0.0910000,-0.0000383
54.62,567.096,0.0130000,0.0920000,0.0003505
54.67,567.596,0.0130000,0.0920000,0.0003811
54.72,568.096,0.0130000,0.0920000,-0.0000479
54.77,568.596,0.0130000,0.0920000,0.0006760
54.82,569.096,0.0130000,0.0920000,0.0005857
54.87,569.596,0.0130000,0.0930000,0.0006551
54.92,570.096,0.0130000,0.0930000,0.0006938
54.97,570.597,0.0130000,0.0930000,0.0006548
55.02,571.097,0.0140000,0.0940000,0.0004942
55.07,571.597,0.0140000,0.0940000,0.0006323
55.12,572.097,0.0140000,0.0940000,0.0005209
55.17,572.597,0.0140000,0.0940000,0.0008313
55.22,573.097,0.0140000,0.0940000,0.0004845
55.27,573.597,0.0140000,0.0950000,0.0005784
55.32,574.097,0.0140000,0.0950000,0.0006611
55.37,574.597,0.0140000,0.0950000,0.0004952
55.42,575.097,0.0140000,0.0960000,0.0006274
55.47,575.597,0.0140000,0.0960000,0.0007414
55.52,576.098,0.0140000,0.0960000,0.0002598
55.57,576.598,0.0140000,0.0960000,0.0001009
55.62,577.098,0.0140000,0.0970000,0.0005429
55.67,577.598,0.0140000,0.0970000,0.0006374
55.72,578.098,0.0140000,0.0970000,0.0007465
55.77,578.598,0.0140000,0.0980000,0.0006524
55.82,579.098,0.0140000,0.0980000,0.0004997
55.87,579.598,0.0140000,0.0980000,0.0004895
55.92,580.098,0.0140000,0.0990000,0.0008287
55.97,580.598,0.0140000,0.0990000,0.0004692
56.02,581.098,0.0140000,0.0990000,0.0007754
56.07,581.598,0.0140000,0.0990000,0.0008902
56.12,582.099,0.0140000,0.1000000,0.0008901
56.17,582.599,0.0140000,0.1000000,0.0006351
56.22,583.099,0.0150000,0.1010000,0.0005773
56.27,583.599,0.0150000,0.1010000,0.0011456
56.32,584.099,0.0150000,0.1010000,0.0009724
56.37,584.599,0.0150000,0.1020000,0.0007873
56.42,585.099,0.0150000,0.1020000,0.0009950
56.47,585.599,0.0150000,0.1030000,0.0011570
56.52,586.099,0.0150000,0.1030000,0.0012205
56.57,586.599,0.0150000,0.1040000,0.0011297
56.62,587.099,0.0150000,0.1040000,0.0009267
56.67,587.6,0.0150000,0.1050000,0.0009443
56.72,588.1,0.0150000,0.1050000,0.0002795
56.77,588.6,0.0150000,0.1050000,0.0006580
56.82,589.1,0.0150000,0.1060000,0.0011267
56.87,589.6,0.0150000,0.1060000,0.0009729
56.91,590,0.0150000,0.1070000,0.0010418