File: R/rHDPE_App/app/www/Output/TGA/Condensed_Data/Resin21_0__1.csv
0.7300000,30,15.457,100.019,0.0037009
0.8000000,30.5001,15.457,100.022,0.0026762
0.8700000,31.0002,15.458,100.024,0.0025608
0.9300000,31.5003,15.458,100.026,0.0014663
0.9900000,32.0004,15.458,100.027,0.0013760
1.05,32.5004,15.458,100.028,0.0014592
1.11,33.0005,15.458,100.03,0.0029303
1.17,33.5006,15.459,100.031,0.0032634
1.23,34.0007,15.459,100.032,0.0002087
1.28,34.5008,15.459,100.032,0.0013433
1.34,35.0009,15.459,100.033,0.0012311
1.39,35.501,15.459,100.034,0.0007641
1.45,36.0011,15.459,100.034,0.0017210
1.51,36.5012,15.459,100.035,0.0011079
1.56,37.0013,15.459,100.036,0.0016524
1.62,37.5013,15.46,100.037,0.0014946
1.67,38.0014,15.46,100.037,0.0010413
1.72,38.5015,15.46,100.038,0.0020242
1.78,39.0016,15.46,100.039,0.0002459
1.83,39.5017,15.46,100.039,0.0014214
1.88,40.0018,15.46,100.04,0.0020533
1.94,40.5019,15.46,100.04,0.0002925
1.99,41.002,15.46,100.041,0.0017029
2.04,41.5021,15.46,100.042,0.0014083
2.1,42.0021,15.46,100.042,0.0005817
2.15,42.5022,15.461,100.043,0.0016936
2.2,43.0023,15.461,100.044,0.0021259
2.26,43.5024,15.461,100.045,0.0008682
2.31,44.0025,15.461,100.045,0.0003854
2.36,44.5026,15.461,100.046,0.0017791
2.41,45.0027,15.461,100.047,0.0019212
2.46,45.5028,15.461,100.047,0.0010067
2.52,46.0029,15.461,100.048,0.0011485
2.57,46.5029,15.461,100.049,0.0016242
2.62,47.003,15.462,100.049,0.0008109
2.67,47.5031,15.462,100.05,0.0010000
2.73,48.0032,15.462,100.05,0.0010932
2.78,48.5033,15.462,100.051,0.0009972
2.83,49.0034,15.462,100.051,0.0009483
2.88,49.5035,15.462,100.052,0.0017041
2.93,50.0036,15.462,100.053,0.0009929
2.99,50.5037,15.462,100.053,0.0010864
3.04,51.0038,15.462,100.054,0.0014152
3.09,51.5038,15.462,100.055,0.0008480
3.14,52.0039,15.462,100.055,0.0008940
3.19,52.504,15.462,100.055,0.0012685
3.24,53.0041,15.463,100.056,0.0010797
3.29,53.5042,15.463,100.057,0.0019704
3.34,54.0043,15.463,100.057,0.0011248
3.39,54.5044,15.463,100.058,0.0019649
3.45,55.0045,15.463,100.058,0.0008881
3.5,55.5046,15.463,100.059,0.0006073
3.55,56.0046,15.463,100.059,0.0016797
3.6,56.5047,15.463,100.06,0.0016779
3.65,57.0048,15.463,100.061,0.0007918
3.7,57.5049,15.463,100.061,0.0015827
3.75,58.005,15.463,100.062,0.0020021
3.8,58.5051,15.464,100.063,0.0004651
3.85,59.0052,15.464,100.063,0.0010225
3.91,59.5053,15.464,100.064,0.0009750
3.96,60.0054,15.464,100.064,0.0003249
4.01,60.5054,15.464,100.065,0.0003711
4.06,61.0055,15.464,100.065,0.0015758
4.11,61.5056,15.464,100.066,0.0015739
4.16,62.0057,15.464,100.066,0.0000926
4.21,62.5058,15.464,100.066,0.0003699
4.26,63.0059,15.464,100.067,0.0013867
4.31,63.506,15.464,100.068,0.0003699
4.36,64.0061,15.464,100.068,0.0010625
4.41,64.5062,15.464,100.068,0.0010617
4.46,65.0063,15.465,100.069,0.0016150
4.51,65.5063,15.465,100.069,0.0008767
4.56,66.0064,15.465,100.07,0.0013833
4.61,66.5065,15.465,100.07,0.0013828
4.66,67.0066,15.465,100.071,0.0001844
4.71,67.5067,15.465,100.071,0.0003227
4.76,68.0068,15.465,100.071,0.0010131
4.81,68.5069,15.465,100.072,0.0014735
4.86,69.007,15.465,100.072,0.0004603
4.91,69.5071,15.465,100.073,0.0006901
4.96,70.0071,15.465,100.073,0.0012417
5.01,70.5072,15.465,100.074,0.0009660
5.06,71.0073,15.465,100.074,0.0004138
5.11,71.5074,15.465,100.075,0.0009652
5.16,72.0075,15.466,100.075,0.0005052
5.21,72.5076,15.466,100.075,0.0005051
5.26,73.0077,15.466,100.076,0.0013311
5.31,73.5078,15.466,100.076,0.0016519
5.36,74.0079,15.466,100.077,0.0005964
5.41,74.5079,15.466,100.077,0.0007341
5.46,75.008,15.466,100.077,0.0011008
5.51,75.5081,15.466,100.078,0.0000918
5.56,76.0082,15.466,100.078,0.0006881
5.61,76.5083,15.466,100.078,0.0005959
5.66,77.0084,15.466,100.079,0.0010544
5.71,77.5085,15.466,100.079,0.0000916
5.77,78.0086,15.466,100.08,0.0009167
5.82,78.5087,15.466,100.08,0.0019697
5.87,79.0088,15.466,100.081,0.0004583
5.92,79.5088,15.466,100.081,0.0004584
5.97,80.0089,15.466,100.081,0.0014666
6.02,80.509,15.466,100.081,0.0010536
6.07,81.0091,15.467,100.082,-0.0000916
6.12,81.5092,15.467,100.082,0.0008701
6.17,82.0093,15.467,100.082,0.0013742
6.22,82.5094,15.467,100.083,0.0000000
6.27,83.0095,15.467,100.083,0.0000915
6.32,83.5096,15.467,100.083,0.0012821
6.37,84.0096,15.467,100.083,0.0008697
6.42,84.5097,15.467,100.084,0.0001832
6.47,85.0098,15.467,100.084,0.0007323
6.52,85.5099,15.467,100.084,0.0014645
6.57,86.01,15.467,100.085,0.0000916
6.62,86.5101,15.467,100.085,0.0000000
6.67,87.0102,15.467,100.085,0.0006410
6.72,87.5103,15.467,100.085,0.0004578
6.77,88.0104,15.467,100.085,0.0009617
6.82,88.5104,15.467,100.085,0.0012368
6.87,89.0105,15.467,100.086,0.0006413
6.92,89.5106,15.467,100.086,-0.0001832
6.97,90.0107,15.467,100.086,0.0008699
7.02,90.5108,15.467,100.086,0.0013279
7.07,91.0109,15.467,100.087,0.0005493
7.12,91.511,15.467,100.087,0.0005492
7.17,92.0111,15.467,100.087,0.0006866
7.22,92.5112,15.467,100.088,0.0010985
7.27,93.0113,15.467,100.088,-0.0000916
7.32,93.5113,15.467,100.088,0.0007778
7.37,94.0114,15.468,100.088,0.0003202
7.42,94.5115,15.468,100.088,0.0002744
7.47,95.0116,15.468,100.088,-0.0001829
7.52,95.5117,15.468,100.089,0.0006861
7.57,96.0118,15.468,100.089,0.0007776
7.62,96.5119,15.468,100.089,-0.0003203
7.67,97.012,15.468,100.089,-0.0005947
7.72,97.5121,15.468,100.089,0.0004574
7.77,98.0121,15.468,100.089,-0.0006861
7.82,98.5122,15.468,100.089,-0.0013727
7.87,99.0123,15.468,100.089,0.0002747
7.92,99.5124,15.468,100.089,0.0003204
7.97,100.013,15.468,100.089,-0.0000916
8.02,100.513,15.468,100.089,-0.0003664
8.07,101.013,15.468,100.09,0.0008699
8.12,101.513,15.468,100.09,0.0000000
8.17,102.013,15.468,100.09,0.0004118
8.22,102.513,15.468,100.09,0.0010534
8.27,103.013,15.468,100.09,0.0005950
8.32,103.513,15.468,100.09,-0.0008699
8.37,104.013,15.468,100.09,0.0004121
8.42,104.513,15.468,100.09,0.0006870
8.47,105.013,15.468,100.09,-0.0003205
8.52,105.513,15.468,100.09,-0.0008701
8.57,106.014,15.468,100.09,0.0008243
8.62,106.514,15.468,100.09,-0.0003662
8.67,107.014,15.468,100.09,0.0000000
8.72,107.514,15.468,100.09,-0.0000001
8.77,108.014,15.468,100.09,0.0005496
8.82,108.514,15.468,100.09,0.0000000
8.87,109.014,15.468,100.09,0.0000000
8.92,109.514,15.468,100.09,0.0002750
8.97,110.014,15.468,100.09,-0.0005041
9.02,110.514,15.468,100.09,-0.0006874
9.07,111.014,15.468,100.09,0.0003665
9.12,111.515,15.468,100.09,0.0002290
9.17,112.015,15.468,100.09,-0.0004580
9.22,112.515,15.468,100.089,-0.0001374
9.27,113.015,15.468,100.09,0.0001832
9.32,113.515,15.468,100.09,-0.0007328
9.37,114.015,15.468,100.089,-0.0003206
9.42,114.515,15.468,100.089,-0.0000915
9.47,115.015,15.468,100.089,-0.0001832
9.52,115.515,15.468,100.089,-0.0007787
9.57,116.015,15.468,100.089,-0.0007330
9.62,116.515,15.468,100.089,0.0004583
9.67,117.016,15.468,100.089,-0.0005959
9.72,117.516,15.468,100.088,-0.0007791
9.77,118.016,15.468,100.088,-0.0000459
9.82,118.516,15.468,100.088,0.0001833
9.87,119.016,15.468,100.088,-0.0004586
9.92,119.516,15.467,100.088,-0.0005960
9.97,120.016,15.467,100.088,0.0000000
10.02,120.516,15.467,100.088,-0.0009166
10.07,121.016,15.467,100.088,-0.0005499
10.12,121.516,15.467,100.087,0.0000000
10.17,122.016,15.467,100.088,-0.0004124
10.22,122.517,15.467,100.087,-0.0012377
10.27,123.017,15.467,100.087,0.0002293
10.32,123.517,15.467,100.087,0.0003666
10.37,124.017,15.467,100.087,-0.0003209
10.42,124.517,15.467,100.087,-0.0001834
10.47,125.017,15.467,100.087,0.0000917
10.52,125.517,15.467,100.087,-0.0002752
10.57,126.017,15.467,100.086,-0.0004588
10.62,126.517,15.467,100.086,0.0004588
10.67,127.017,15.467,100.086,0.0003212
10.72,127.517,15.467,100.086,-0.0003672
10.77,128.018,15.467,100.086,-0.0005052
10.82,128.518,15.467,100.086,0.0008266
10.87,129.018,15.467,100.086,-0.0005055
10.92,129.518,15.467,100.086,0.0001380
10.97,130.018,15.467,100.086,0.0007360
11.02,130.518,15.467,100.086,0.0002762
11.07,131.018,15.467,100.086,-0.0000922
11.12,131.518,15.467,100.086,0.0005062
11.17,132.018,15.467,100.086,0.0004601
11.22,132.518,15.467,100.087,-0.0004138
11.27,133.018,15.467,100.086,-0.0005510
11.32,133.518,15.467,100.086,-0.0000917
11.37,134.019,15.467,100.086,-0.0004580
11.42,134.519,15.467,100.086,-0.0005947
11.47,135.019,15.467,100.086,-0.0002743
11.52,135.519,15.467,100.086,0.0001826
11.57,136.019,15.467,100.085,-0.0015966
11.62,136.519,15.467,100.085,-0.0010941
11.67,137.019,15.467,100.085,-0.0003646
11.72,137.519,15.467,100.084,-0.0008654
11.77,138.019,15.467,100.084,-0.0013198
11.82,138.519,15.467,100.083,-0.0011367
11.87,139.019,15.467,100.083,-0.0004541
11.92,139.52,15.467,100.082,-0.0018149
11.97,140.02,15.466,100.081,-0.0020384
12.02,140.52,15.466,100.08,-0.0018538
12.07,141.02,15.466,100.079,-0.0019399
12.12,141.52,15.466,100.078,-0.0024333
12.17,142.02,15.466,100.076,-0.0022967
12.22,142.52,15.466,100.076,-0.0022518
12.27,143.02,15.465,100.074,-0.0022082
12.32,143.52,15.465,100.073,-0.0021667
12.37,144.02,15.465,100.072,-0.0019448
12.41,144.52,15.465,100.07,-0.0029016
12.46,145.021,15.465,100.069,-0.0034106
12.51,145.521,15.464,100.068,-0.0021422
12.56,146.021,15.464,100.067,-0.0017825
12.61,146.521,15.464,100.066,-0.0028393
12.66,147.021,15.464,100.064,-0.0018821
12.71,147.521,15.464,100.063,-0.0015635
12.76,148.021,15.464,100.063,-0.0018889
12.81,148.521,15.463,100.061,-0.0021673
12.87,149.021,15.463,100.06,-0.0014767
12.92,149.521,15.463,100.06,-0.0013857
12.97,150.021,15.463,100.059,-0.0019863
13.02,150.522,15.463,100.058,-0.0019403
13.07,151.022,15.463,100.057,-0.0006925
13.12,151.522,15.463,100.056,-0.0019843
13.17,152.022,15.462,100.055,-0.0019375
13.22,152.522,15.462,100.054,-0.0008762
13.27,153.022,15.462,100.054,-0.0012448
13.32,153.522,15.462,100.053,-0.0021659
13.37,154.022,15.462,100.052,-0.0010593
13.42,154.522,15.462,100.052,-0.0007370
13.47,155.022,15.462,100.051,-0.0021635
13.52,155.522,15.462,100.05,-0.0015644
13.57,156.023,15.462,100.049,-0.0009660
13.62,156.523,15.461,100.049,-0.0021155
13.67,157.023,15.461,100.048,-0.0021157
13.72,157.523,15.461,100.047,-0.0014709
13.77,158.023,15.461,100.046,-0.0013789
13.82,158.523,15.461,100.045,-0.0023450
13.87,159.023,15.461,100.044,-0.0015635
13.92,159.523,15.461,100.044,-0.0011954
13.97,160.023,15.461,100.043,-0.0020684
14.02,160.523,15.46,100.042,-0.0019766
14.07,161.023,15.46,100.041,-0.0012864
14.12,161.523,15.46,100.041,-0.0020666
14.17,162.024,15.46,100.04,-0.0023410
14.22,162.524,15.46,100.039,-0.0012846
14.27,163.024,15.46,100.038,-0.0016514
14.32,163.524,15.46,100.037,-0.0021103
14.37,164.024,15.46,100.036,-0.0020639
14.42,164.524,15.459,100.036,-0.0016051
14.47,165.024,15.459,100.035,-0.0019707
14.52,165.524,15.459,100.034,-0.0028865
14.57,166.024,15.459,100.033,-0.0019698
14.62,166.524,15.459,100.032,-0.0016487
14.67,167.024,15.459,100.031,-0.0023347
14.72,167.525,15.459,100.03,-0.0021057
14.77,168.025,15.458,100.029,-0.0013736
14.82,168.525,15.458,100.028,-0.0023814
14.87,169.025,15.458,100.027,-0.0028388
14.92,169.525,15.458,100.026,-0.0016029
14.97,170.025,15.458,100.025,-0.0015572
15.02,170.525,15.458,100.024,-0.0025194
15.07,171.025,15.457,100.023,-0.0020618
15.12,171.525,15.457,100.022,-0.0014198
15.17,172.025,15.457,100.022,-0.0022446
15.22,172.525,15.457,100.02,-0.0025195
15.27,173.026,15.457,100.019,-0.0019249
15.32,173.526,15.457,100.018,-0.0015575
15.37,174.026,15.457,100.017,-0.0031150
15.42,174.526,15.456,100.016,-0.0027029
15.47,175.026,15.456,100.015,-0.0012371
15.52,175.526,15.456,100.014,-0.0022463
15.57,176.026,15.456,100.013,-0.0023373
15.62,176.526,15.456,100.012,-0.0011913
15.67,177.026,15.456,100.011,-0.0018785
15.72,177.526,15.455,100.01,-0.0023364
15.77,178.026,15.455,100.009,-0.0020614
15.82,178.527,15.455,100.008,-0.0015569
15.87,179.027,15.455,100.007,-0.0026091
15.92,179.527,15.455,100.006,-0.0023353
15.97,180.027,15.455,100.005,-0.0014652
16.02,180.527,15.455,100.004,-0.0031144
16.07,181.027,15.454,100.003,-0.0026106
16.12,181.527,15.454,100.002,-0.0019693
16.17,182.027,15.454,100.001,-0.0019694
16.22,182.527,15.454,100,-0.0031130
16.27,183.027,15.454,99.998,-0.0023358
16.32,183.527,15.454,99.997,-0.0016945
16.37,184.028,15.453,99.997,-0.0022450
16.42,184.528,15.453,99.995,-0.0031614
16.47,185.028,15.453,99.994,-0.0019699
16.52,185.528,15.453,99.993,-0.0017412
16.57,186.028,15.453,99.992,-0.0024281
16.62,186.528,15.452,99.991,-0.0021534
16.67,187.028,15.452,99.99,-0.0017407
16.72,187.528,15.452,99.989,-0.0024278
16.77,188.028,15.452,99.987,-0.0028404
16.82,188.528,15.452,99.986,-0.0015578
16.88,189.028,15.452,99.985,-0.0019240
16.93,189.528,15.451,99.984,-0.0024283
16.98,190.029,15.451,99.982,-0.0025195
17.03,190.529,15.451,99.981,-0.0015578
17.08,191.029,15.451,99.98,-0.0025648
17.13,191.529,15.451,99.979,-0.0029762
17.18,192.029,15.45,99.978,-0.0017394
17.23,192.529,15.45,99.977,-0.0021060
17.28,193.029,15.45,99.975,-0.0025190
17.33,193.529,15.45,99.974,-0.0020604
17.38,194.029,15.45,99.973,-0.0021526
17.43,194.529,15.45,99.972,-0.0025186
17.48,195.029,15.449,99.97,-0.0030214
17.53,195.53,15.449,99.969,-0.0023347
17.58,196.03,15.449,99.968,-0.0029296
17.63,196.53,15.449,99.967,-0.0028385
17.68,197.03,15.449,99.965,-0.0029312
17.73,197.53,15.448,99.964,-0.0023356
17.78,198.03,15.448,99.963,-0.0022909
17.83,198.53,15.448,99.961,-0.0028862
17.88,199.03,15.448,99.96,-0.0021540
17.93,199.53,15.448,99.959,-0.0022461
17.98,200.03,15.447,99.958,-0.0022002
18.03,200.53,15.447,99.956,-0.0029789
18.08,201.031,15.447,99.955,-0.0025665
18.13,201.531,15.447,99.954,-0.0027498
18.18,202.031,15.447,99.952,-0.0027951
18.23,202.531,15.446,99.951,-0.0019707
18.28,203.031,15.446,99.95,-0.0029331
18.33,203.531,15.446,99.948,-0.0025204
18.38,204.031,15.446,99.947,-0.0024281
18.43,204.531,15.446,99.946,-0.0025206
18.48,205.031,15.445,99.944,-0.0031634
18.53,205.531,15.445,99.943,-0.0023377
18.58,206.031,15.445,99.942,-0.0023380
18.63,206.532,15.445,99.941,-0.0029358
18.68,207.032,15.445,99.939,-0.0026598
18.73,207.532,15.444,99.938,-0.0023843
18.78,208.032,15.444,99.937,-0.0027044
18.83,208.532,15.444,99.935,-0.0031631
18.88,209.032,15.444,99.934,-0.0021544
18.93,209.532,15.444,99.933,-0.0020169
18.98,210.032,15.443,99.931,-0.0028422
19.03,210.532,15.443,99.93,-0.0028886
19.08,211.032,15.443,99.928,-0.0024759
19.13,211.532,15.443,99.927,-0.0026593
19.18,212.033,15.442,99.926,-0.0031643
19.23,212.533,15.442,99.924,-0.0019262
19.28,213.033,15.442,99.923,-0.0020629
19.33,213.533,15.442,99.922,-0.0033009
19.38,214.033,15.442,99.921,-0.0023838
19.43,214.533,15.441,99.919,-0.0022457
19.48,215.033,15.441,99.918,-0.0032081
19.53,215.533,15.441,99.916,-0.0036664
19.58,216.033,15.441,99.915,-0.0016491
19.63,216.533,15.441,99.914,-0.0024281
19.68,217.033,15.44,99.912,-0.0036647
19.73,217.533,15.44,99.911,-0.0026116
19.78,218.034,15.44,99.909,-0.0025195
19.83,218.534,15.44,99.908,-0.0032985
19.88,219.034,15.439,99.906,-0.0031158
19.93,219.534,15.439,99.905,-0.0020162
19.98,220.034,15.439,99.904,-0.0019705
20.03,220.534,15.439,99.902,-0.0025204
20.08,221.034,15.439,99.901,-0.0022915
20.13,221.534,15.438,99.9,-0.0021540
20.18,222.034,15.438,99.898,-0.0034849
20.23,222.534,15.438,99.897,-0.0028422
20.28,223.034,15.438,99.895,-0.0019248
20.33,223.535,15.438,99.894,-0.0029331
20.38,224.035,15.437,99.892,-0.0026576
20.43,224.535,15.437,99.891,-0.0026111
20.48,225.035,15.437,99.89,-0.0022444
20.53,225.535,15.437,99.888,-0.0037111
20.58,226.035,15.436,99.886,-0.0027948
20.63,226.535,15.436,99.885,-0.0020614
20.68,227.035,15.436,99.884,-0.0029304
20.73,227.535,15.436,99.882,-0.0034805
20.78,228.035,15.435,99.881,-0.0030220
20.83,228.535,15.435,99.879,-0.0023345
20.88,229.036,15.435,99.878,-0.0028375
20.93,229.536,15.435,99.876,-0.0031136
20.98,230.036,15.435,99.875,-0.0022425
21.03,230.536,15.434,99.874,-0.0031125
21.08,231.036,15.434,99.872,-0.0033410
21.13,231.536,15.434,99.87,-0.0026550
21.18,232.036,15.434,99.869,-0.0027002
21.23,232.536,15.433,99.868,-0.0028388
21.28,233.036,15.433,99.866,-0.0030678
21.33,233.536,15.433,99.864,-0.0023803
21.38,234.036,15.433,99.863,-0.0032961
21.43,234.537,15.432,99.861,-0.0032961
21.48,235.037,15.432,99.86,-0.0026542
21.53,235.537,15.432,99.858,-0.0030220
21.58,236.037,15.432,99.857,-0.0032049
21.63,236.537,15.432,99.855,-0.0025190
21.68,237.037,15.431,99.854,-0.0022897
21.73,237.537,15.431,99.852,-0.0033895
21.78,238.037,15.431,99.851,-0.0029323
21.83,238.537,15.431,99.849,-0.0024744
21.88,239.037,15.43,99.848,-0.0027032
21.93,239.537,15.43,99.846,-0.0036205
21.98,240.038,15.43,99.844,-0.0034372
22.03,240.538,15.43,99.843,-0.0029331
22.08,241.038,15.429,99.841,-0.0032081
22.13,241.538,15.429,99.84,-0.0033452
22.18,242.038,15.429,99.838,-0.0026118
22.23,242.538,15.429,99.837,-0.0034363
22.28,243.038,15.428,99.835,-0.0032988
22.33,243.538,15.428,99.833,-0.0030248
22.38,244.038,15.428,99.832,-0.0023364
22.43,244.538,15.428,99.831,-0.0035273
22.48,245.038,15.427,99.829,-0.0039861
22.53,245.538,15.427,99.827,-0.0025197
22.58,246.039,15.427,99.826,-0.0038025
22.63,246.539,15.427,99.824,-0.0037122
22.68,247.039,15.426,99.822,-0.0027951
22.73,247.539,15.426,99.821,-0.0025665
22.78,248.039,15.426,99.82,-0.0032997
22.83,248.539,15.426,99.818,-0.0033016
22.88,249.039,15.426,99.816,-0.0021078
22.93,249.539,15.425,99.815,-0.0033456
22.98,250.039,15.425,99.813,-0.0032066
23.03,250.539,15.425,99.812,-0.0031608
23.08,251.039,15.425,99.81,-0.0026586
23.13,251.54,15.424,99.809,-0.0029331
23.18,252.04,15.424,99.807,-0.0027047
23.23,252.54,15.424,99.805,-0.0022463
23.28,253.04,15.424,99.804,-0.0035279
23.33,253.54,15.423,99.802,-0.0032988
23.38,254.04,15.423,99.801,-0.0030239
23.43,254.54,15.423,99.799,-0.0029323
23.48,255.04,15.423,99.797,-0.0037122
23.53,255.54,15.422,99.796,-0.0031150
23.58,256.04,15.422,99.794,-0.0025197
23.63,256.54,15.422,99.793,-0.0032051
23.68,257.041,15.422,99.791,-0.0034799
23.73,257.541,15.421,99.789,-0.0024267
23.78,258.041,15.421,99.788,-0.0026099
23.83,258.541,15.421,99.786,-0.0033895
23.88,259.041,15.421,99.784,-0.0034359
23.93,259.541,15.42,99.783,-0.0028867
23.98,260.041,15.42,99.781,-0.0037122
24.03,260.541,15.42,99.779,-0.0033902
24.08,261.041,15.42,99.778,-0.0025215
24.13,261.541,15.419,99.777,-0.0027966
24.18,262.041,15.419,99.775,-0.0027045
24.23,262.542,15.419,99.773,-0.0035302
24.28,263.042,15.419,99.772,-0.0030711
24.33,263.542,15.418,99.77,-0.0039428
24.38,264.042,15.418,99.768,-0.0028409
24.43,264.542,15.418,99.767,-0.0025197
24.48,265.042,15.418,99.765,-0.0038934
24.53,265.542,15.417,99.763,-0.0032967
24.58,266.042,15.417,99.762,-0.0029289
24.63,266.542,15.417,99.76,-0.0025160
24.68,267.042,15.417,99.759,-0.0040729
24.73,267.542,15.416,99.757,-0.0032040
24.78,268.043,15.416,99.755,-0.0026084
24.83,268.543,15.416,99.753,-0.0037991
24.88,269.043,15.416,99.752,-0.0037519
24.93,269.543,15.415,99.75,-0.0029304
24.98,270.043,15.415,99.748,-0.0028846
25.03,270.543,15.415,99.747,-0.0031136
25.08,271.043,15.414,99.745,-0.0037115
25.13,271.543,15.414,99.743,-0.0031124
25.18,272.043,15.414,99.742,-0.0031117
25.23,272.543,15.414,99.74,-0.0035681
25.28,273.043,15.413,99.738,-0.0027437
25.33,273.543,15.413,99.736,-0.0037955
25.38,274.044,15.413,99.735,-0.0037956
25.43,274.544,15.413,99.733,-0.0037969
25.48,275.044,15.412,99.731,-0.0028830
25.53,275.544,15.412,99.729,-0.0043040
25.58,276.044,15.412,99.727,-0.0035727
25.63,276.544,15.412,99.726,-0.0029773
25.68,277.044,15.411,99.724,-0.0043064
25.73,277.544,15.411,99.722,-0.0039872
25.78,278.044,15.411,99.72,-0.0031152
25.83,278.544,15.41,99.718,-0.0030237
25.88,279.044,15.41,99.716,-0.0040789
25.93,279.545,15.41,99.715,-0.0030247
25.98,280.045,15.41,99.713,-0.0031153
26.03,280.545,15.409,99.711,-0.0044897
26.08,281.045,15.409,99.709,-0.0038948
26.13,281.545,15.409,99.708,-0.0027498
26.18,282.045,15.409,99.706,-0.0034830
26.23,282.545,15.408,99.704,-0.0043063
26.28,283.045,15.408,99.702,-0.0036205
26.33,283.545,15.408,99.701,-0.0029325
26.38,284.045,15.407,99.699,-0.0034817
26.43,284.545,15.407,99.697,-0.0040315
26.48,285.046,15.407,99.695,-0.0031147
26.53,285.546,15.407,99.693,-0.0038940
26.58,286.046,15.406,99.691,-0.0039406
26.63,286.546,15.406,99.689,-0.0036186
26.68,287.046,15.406,99.688,-0.0035270
26.73,287.546,15.405,99.686,-0.0039879
26.78,288.046,15.405,99.684,-0.0037135
26.83,288.546,15.405,99.682,-0.0032092
26.88,289.046,15.404,99.68,-0.0046771
26.93,289.546,15.404,99.678,-0.0043096
26.98,290.046,15.404,99.676,-0.0036219
27.03,290.547,15.404,99.674,-0.0031176
27.08,291.047,15.403,99.672,-0.0036239
27.13,291.547,15.403,99.67,-0.0035301
27.18,292.047,15.403,99.669,-0.0033461
27.23,292.547,15.402,99.667,-0.0042636
27.28,293.047,15.402,99.665,-0.0038962
27.33,293.547,15.402,99.663,-0.0037135
27.38,294.047,15.402,99.661,-0.0034812
27.43,294.547,15.401,99.659,-0.0049954
27.48,295.047,15.401,99.657,-0.0043064
27.53,295.547,15.401,99.655,-0.0038941
27.58,296.048,15.4,99.653,-0.0037108
27.63,296.548,15.4,99.651,-0.0035275
27.68,297.048,15.4,99.649,-0.0036205
27.73,297.548,15.399,99.647,-0.0038948
27.78,298.048,15.399,99.645,-0.0043956
27.83,298.548,15.399,99.643,-0.0040766
27.88,299.048,15.398,99.641,-0.0035734
27.93,299.548,15.398,99.639,-0.0048552
27.98,300.048,15.398,99.637,-0.0046703
28.03,300.548,15.397,99.635,-0.0036616
28.08,301.048,15.397,99.633,-0.0038898
28.13,301.548,15.397,99.631,-0.0043001
28.18,302.049,15.397,99.629,-0.0035688
28.23,302.549,15.396,99.627,-0.0037054
28.28,303.049,15.396,99.625,-0.0041629
28.33,303.549,15.396,99.623,-0.0051693
28.38,304.049,15.395,99.62,-0.0036596
28.43,304.549,15.395,99.618,-0.0043017
28.48,305.049,15.395,99.616,-0.0052169
28.53,305.549,15.394,99.614,-0.0042559
28.58,306.049,15.394,99.612,-0.0037504
28.63,306.549,15.394,99.61,-0.0048051
28.68,307.049,15.393,99.607,-0.0040728
28.73,307.55,15.393,99.605,-0.0038898
28.78,308.05,15.393,99.603,-0.0047603
28.83,308.55,15.392,99.601,-0.0049882
28.88,309.05,15.392,99.599,-0.0044872
28.93,309.55,15.392,99.597,-0.0044855
28.99,310.05,15.391,99.594,-0.0048966
29.03,310.55,15.391,99.592,-0.0047619
29.09,311.05,15.391,99.59,-0.0043956
29.14,311.55,15.39,99.588,-0.0049908
29.19,312.05,15.39,99.586,-0.0046703
29.24,312.55,15.39,99.583,-0.0048103
29.29,313.051,15.389,99.581,-0.0053114
29.34,313.551,15.389,99.579,-0.0051740
29.39,314.051,15.388,99.576,-0.0043942
29.44,314.551,15.388,99.574,-0.0038441
29.49,315.051,15.388,99.572,-0.0051254
29.54,315.551,15.387,99.569,-0.0046669
29.59,316.051,15.387,99.567,-0.0041644
29.64,316.551,15.387,99.565,-0.0043940
29.69,317.051,15.386,99.562,-0.0046245
29.74,317.551,15.386,99.56,-0.0043498
29.79,318.051,15.386,99.558,-0.0041652
29.84,318.552,15.385,99.555,-0.0052675
29.89,319.052,15.385,99.553,-0.0049469
29.94,319.552,15.384,99.55,-0.0045813
29.99,320.052,15.384,99.548,-0.0052675
30.04,320.552,15.384,99.545,-0.0054518
30.09,321.052,15.383,99.543,-0.0053571
30.14,321.552,15.383,99.54,-0.0049019
30.19,322.052,15.382,99.538,-0.0052656
30.24,322.552,15.382,99.535,-0.0048993
30.29,323.052,15.382,99.533,-0.0043956
30.34,323.552,15.381,99.531,-0.0055424
30.39,324.053,15.381,99.528,-0.0047654
30.44,324.553,15.381,99.525,-0.0044888
30.49,325.053,15.38,99.523,-0.0046686
30.54,325.553,15.38,99.52,-0.0051759
30.59,326.053,15.379,99.518,-0.0053143
30.64,326.553,15.379,99.515,-0.0047161
30.69,327.053,15.379,99.513,-0.0052217
30.74,327.553,15.378,99.51,-0.0061847
30.79,328.053,15.378,99.507,-0.0054508
30.84,328.553,15.377,99.504,-0.0051311
30.89,329.053,15.377,99.501,-0.0059556
30.94,329.553,15.376,99.499,-0.0054537
30.99,330.054,15.376,99.496,-0.0051300
31.04,330.554,15.376,99.493,-0.0059546
31.09,331.054,15.375,99.49,-0.0062317
31.14,331.554,15.375,99.487,-0.0054487
31.19,332.054,15.374,99.485,-0.0064560
31.24,332.554,15.374,99.482,-0.0069165
31.29,333.054,15.373,99.479,-0.0059098
31.34,333.554,15.373,99.476,-0.0054965
31.39,334.054,15.372,99.473,-0.0063610
31.44,334.554,15.372,99.47,-0.0059098
31.49,335.054,15.372,99.467,-0.0057266
31.54,335.555,15.371,99.464,-0.0064126
31.59,336.055,15.371,99.461,-0.0066875
31.64,336.555,15.37,99.458,-0.0057234
31.69,337.055,15.37,99.455,-0.0060014
31.74,337.555,15.369,99.451,-0.0060931
31.79,338.055,15.369,99.448,-0.0062293
31.84,338.555,15.368,99.445,-0.0059982
31.89,339.055,15.368,99.442,-0.0066863
31.94,339.555,15.367,99.438,-0.0066392
31.99,340.055,15.367,99.435,-0.0069139
32.04,340.555,15.366,99.432,-0.0061779
32.09,341.056,15.366,99.428,-0.0072344
32.14,341.556,15.365,99.425,-0.0069139
32.19,342.056,15.364,99.421,-0.0063609
32.24,342.556,15.364,99.418,-0.0064080
32.29,343.056,15.363,99.414,-0.0071847
32.34,343.556,15.363,99.411,-0.0070030
32.39,344.056,15.362,99.407,-0.0070474
32.44,344.556,15.362,99.403,-0.0072762
32.49,345.056,15.361,99.4,-0.0073718
32.54,345.556,15.361,99.396,-0.0068186
32.59,346.056,15.36,99.392,-0.0077796
32.64,346.557,15.359,99.388,-0.0081854
32.69,347.057,15.359,99.384,-0.0071834
32.74,347.557,15.358,99.381,-0.0081472
32.79,348.057,15.358,99.377,-0.0089237
32.84,348.557,15.357,99.373,-0.0084629
32.89,349.057,15.356,99.369,-0.0075979
32.94,349.557,15.356,99.365,-0.0083714
32.99,350.057,15.355,99.361,-0.0080970
33.04,350.557,15.355,99.357,-0.0077796
33.09,351.057,15.354,99.353,-0.0084660
33.14,351.557,15.353,99.349,-0.0086002
33.19,352.058,15.353,99.344,-0.0087864
33.24,352.558,15.352,99.34,-0.0080586
33.29,353.058,15.351,99.336,-0.0087912
33.34,353.558,15.351,99.331,-0.0088370
33.39,354.058,15.35,99.327,-0.0081044
33.44,354.558,15.349,99.323,-0.0089286
33.49,355.058,15.349,99.318,-0.0091542
33.54,355.558,15.348,99.313,-0.0093407
33.59,356.058,15.347,99.309,-0.0084249
33.64,356.558,15.346,99.305,-0.0094322
33.69,357.058,15.346,99.3,-0.0093407
33.74,357.558,15.345,99.295,-0.0088337
33.79,358.059,15.344,99.291,-0.0093407
33.84,358.559,15.344,99.286,-0.0098478
33.89,359.059,15.343,99.281,-0.0096189
33.94,359.559,15.342,99.276,-0.0092033
33.99,360.059,15.341,99.271,-0.0101190
34.04,360.559,15.34,99.266,-0.0099817
34.09,361.059,15.34,99.261,-0.0097985
34.14,361.559,15.339,99.256,-0.0104796
34.19,362.059,15.338,99.251,-0.0109432
34.24,362.559,15.337,99.246,-0.0101135
34.29,363.059,15.337,99.241,-0.0102508
34.34,363.56,15.336,99.235,-0.0108894
34.39,364.06,15.335,99.23,-0.0105311
34.44,364.56,15.334,99.225,-0.0100677
34.49,365.06,15.333,99.22,-0.0113906
34.54,365.56,15.333,99.214,-0.0109332
34.59,366.06,15.332,99.209,-0.0111142
34.64,366.56,15.331,99.203,-0.0111639
34.69,367.06,15.33,99.198,-0.0112555
34.74,367.56,15.329,99.192,-0.0119854
34.79,368.06,15.328,99.187,-0.0103386
34.84,368.56,15.327,99.181,-0.0112118
34.89,369.061,15.327,99.176,-0.0108019
34.94,369.561,15.326,99.17,-0.0106626
34.99,370.061,15.325,99.165,-0.0111264
35.04,370.561,15.324,99.159,-0.0117674
35.09,371.061,15.323,99.153,-0.0110867
35.14,371.561,15.322,99.147,-0.0109472
35.19,372.061,15.321,99.142,-0.0114969
35.24,372.561,15.32,99.136,-0.0119156
35.29,373.061,15.319,99.13,-0.0109950
35.34,373.561,15.319,99.124,-0.0117323
35.39,374.061,15.318,99.118,-0.0125573
35.44,374.562,15.317,99.112,-0.0117237
35.49,375.062,15.316,99.107,-0.0118633
35.54,375.562,15.315,99.101,-0.0125000
35.59,376.062,15.314,99.094,-0.0122755
35.64,376.562,15.313,99.089,-0.0116801
35.69,377.062,15.312,99.083,-0.0127337
35.74,377.562,15.311,99.076,-0.0126901
35.79,378.062,15.31,99.07,-0.0121795
35.84,378.562,15.309,99.064,-0.0128252
35.89,379.062,15.308,99.058,-0.0130541
35.94,379.562,15.307,99.051,-0.0128135
35.99,380.063,15.306,99.045,-0.0122620
36.04,380.563,15.305,99.039,-0.0131314
36.09,381.063,15.304,99.032,-0.0130327
36.14,381.563,15.303,99.026,-0.0124314
36.19,382.063,15.302,99.019,-0.0130256
36.24,382.563,15.301,99.013,-0.0132011
36.29,383.063,15.3,99.006,-0.0126987
36.34,383.563,15.299,99,-0.0127854
36.39,384.063,15.298,98.993,-0.0138407
36.44,384.563,15.297,98.986,-0.0143967
36.49,385.063,15.296,98.979,-0.0136580
36.54,385.563,15.295,98.973,-0.0137112
36.59,386.064,15.294,98.966,-0.0138940
36.64,386.564,15.293,98.959,-0.0135407
36.69,387.064,15.292,98.952,-0.0139524
36.74,387.564,15.291,98.945,-0.0145524
36.79,388.064,15.29,98.938,-0.0146009
36.84,388.564,15.289,98.931,-0.0135914
36.89,389.064,15.288,98.924,-0.0142805
36.94,389.564,15.286,98.917,-0.0146062
36.99,390.064,15.285,98.909,-0.0145147
37.04,390.564,15.284,98.902,-0.0147894
37.09,391.064,15.283,98.894,-0.0149725
37.14,391.565,15.282,98.887,-0.0146062
37.19,392.065,15.281,98.88,-0.0146978
37.24,392.565,15.28,98.872,-0.0152847
37.29,393.065,15.278,98.865,-0.0157967
37.34,393.565,15.277,98.857,-0.0148755
37.39,394.065,15.276,98.85,-0.0152015
37.44,394.565,15.275,98.842,-0.0162606
37.49,395.065,15.274,98.834,-0.0152015
37.54,395.565,15.272,98.826,-0.0149644
37.59,396.065,15.271,98.818,-0.0154704
37.64,396.565,15.27,98.81,-0.0164835
37.69,397.066,15.269,98.802,-0.0159341
37.74,397.566,15.268,98.795,-0.0157509
37.79,398.066,15.266,98.786,-0.0168894
37.84,398.566,15.265,98.778,-0.0161541
37.89,399.066,15.264,98.77,-0.0161541
37.94,399.566,15.263,98.762,-0.0167490
37.99,400.066,15.261,98.753,-0.0170267
38.04,400.566,15.26,98.745,-0.0159799
38.09,401.066,15.259,98.737,-0.0165293
38.14,401.566,15.257,98.728,-0.0178932
38.19,402.066,15.256,98.719,-0.0170267
38.24,402.567,15.255,98.711,-0.0170725
38.29,403.067,15.253,98.702,-0.0179878
38.34,403.567,15.252,98.693,-0.0178409
38.39,404.067,15.251,98.684,-0.0174386
38.44,404.567,15.249,98.676,-0.0177590
38.49,405.067,15.248,98.667,-0.0186355
38.54,405.567,15.246,98.658,-0.0179880
38.59,406.067,15.245,98.649,-0.0177198
38.64,406.567,15.244,98.64,-0.0190123
38.69,407.067,15.242,98.63,-0.0183710
38.74,407.567,15.241,98.621,-0.0180011
38.79,408.068,15.239,98.612,-0.0184625
38.84,408.568,15.238,98.603,-0.0189560
38.89,409.068,15.237,98.593,-0.0188187
38.94,409.568,15.235,98.584,-0.0189491
38.99,410.068,15.234,98.574,-0.0199982
39.04,410.568,15.232,98.564,-0.0196321
39.09,411.068,15.231,98.554,-0.0197802
39.14,411.568,15.229,98.544,-0.0207418
39.19,412.068,15.227,98.534,-0.0211538
39.24,412.568,15.226,98.524,-0.0204670
39.29,413.068,15.224,98.513,-0.0212912
39.34,413.568,15.223,98.503,-0.0216575
39.39,414.069,15.221,98.492,-0.0211422
39.44,414.569,15.219,98.481,-0.0210165
39.49,415.069,15.217,98.47,-0.0215320
39.54,415.569,15.216,98.459,-0.0221612
39.59,416.069,15.214,98.448,-0.0223901
39.64,416.569,15.212,98.437,-0.0226441
39.69,417.069,15.211,98.425,-0.0231016
39.74,417.569,15.209,98.414,-0.0227439
39.79,418.069,15.207,98.402,-0.0228812
39.84,418.569,15.205,98.391,-0.0241449
39.89,419.069,15.203,98.379,-0.0241449
39.94,419.57,15.201,98.367,-0.0241316
39.99,420.07,15.2,98.355,-0.0241951
40.04,420.57,15.198,98.342,-0.0249772
40.09,421.07,15.196,98.329,-0.0261112
40.14,421.57,15.194,98.317,-0.0260293
40.19,422.07,15.192,98.303,-0.0268625
40.24,422.57,15.19,98.289,-0.0271778
40.29,423.07,15.187,98.276,-0.0273101
40.34,423.57,15.185,98.262,-0.0280878
40.39,424.07,15.183,98.248,-0.0290379
40.44,424.57,15.181,98.233,-0.0292208
40.49,425.071,15.179,98.218,-0.0296618
40.54,425.571,15.176,98.203,-0.0304845
40.59,426.071,15.174,98.188,-0.0303473
40.64,426.571,15.172,98.173,-0.0302725
40.69,427.071,15.169,98.157,-0.0323303
40.74,427.571,15.167,98.141,-0.0330923
40.79,428.071,15.164,98.124,-0.0339495
40.84,428.571,15.161,98.107,-0.0352435
40.89,429.071,15.159,98.089,-0.0369761
40.94,429.571,15.156,98.07,-0.0379370
40.99,430.071,15.153,98.051,-0.0387608
41.04,430.572,15.15,98.031,-0.0415828
41.09,431.072,15.146,98.01,-0.0426963
41.14,431.572,15.143,97.988,-0.0438243
41.19,432.072,15.14,97.966,-0.0444810
41.24,432.572,15.136,97.943,-0.0456084
41.29,433.072,15.132,97.92,-0.0467521
41.34,433.572,15.129,97.897,-0.0457166
41.39,434.072,15.125,97.874,-0.0472960
41.44,434.572,15.122,97.85,-0.0478742
41.49,435.072,15.118,97.826,-0.0485068
41.54,435.572,15.114,97.801,-0.0506410
41.59,436.073,15.11,97.775,-0.0522149
41.64,436.573,15.106,97.749,-0.0540256
41.69,437.073,15.102,97.721,-0.0566123
41.74,437.573,15.097,97.692,-0.0595151
41.79,438.073,15.093,97.662,-0.0625686
41.84,438.573,15.088,97.63,-0.0652473
41.89,439.073,15.082,97.596,-0.0703024
41.94,439.573,15.077,97.561,-0.0753469
41.99,440.073,15.071,97.523,-0.0804010
42.04,440.573,15.065,97.484,-0.0826006
42.09,441.073,15.058,97.439,-0.0947279
42.14,441.573,15.051,97.393,-0.0942822
42.19,442.074,15.044,97.346,-0.0980347
42.24,442.574,15.035,97.289,-0.1096740
42.29,443.074,15.025,97.228,-0.1172560
42.34,443.574,15.016,97.166,-0.1252270
42.39,444.074,15.005,97.095,-0.1615280
42.44,444.574,14.993,97.015,-0.1564840
42.49,445.074,14.98,96.936,-0.1627780
42.54,445.574,14.968,96.853,-0.1735350
42.59,446.074,14.953,96.759,-0.1865030
42.64,446.574,14.939,96.665,-0.1873750
42.69,447.074,14.923,96.562,-0.2124790
42.74,447.575,14.907,96.459,-0.2009000
42.79,448.075,14.891,96.356,-0.2046790
42.84,448.575,14.874,96.247,-0.2280200
42.89,449.075,14.855,96.124,-0.2505950
42.94,449.575,14.835,95.998,-0.2615140
42.99,450.075,14.814,95.861,-0.2801380
43.04,450.575,14.792,95.714,-0.3042360
43.09,451.075,14.764,95.538,-0.3549170
43.14,451.575,14.737,95.362,-0.3738100
43.19,452.075,14.708,95.174,-0.3586540
43.24,452.575,14.677,94.971,-0.4452530
43.29,453.076,14.641,94.74,-0.5008240
43.34,453.576,14.6,94.471,-0.5603550
43.39,454.076,14.554,94.179,-0.6096730
43.44,454.576,14.505,93.863,-0.6500900
43.49,455.076,14.453,93.523,-0.7257340
43.54,455.576,14.396,93.155,-0.7781070
43.59,456.076,14.336,92.765,-0.8496410
43.64,456.576,14.27,92.342,-0.8766980
43.69,457.076,14.201,91.893,-0.9371430
43.74,457.576,14.126,91.408,-1.01063
43.79,458.076,14.043,90.873,-1.09628
43.84,458.577,13.957,90.316,-1.11312
43.89,459.077,13.874,89.776,-1.09855
43.94,459.577,13.784,89.195,-1.09758
43.99,460.077,13.699,88.643,-1.09415
44.04,460.577,13.609,88.064,-1.16326
44.09,461.077,13.515,87.451,-1.30928
44.14,461.577,13.409,86.767,-1.42284
44.19,462.077,13.294,86.025,-1.53101
44.24,462.577,13.173,85.243,-1.5292
44.29,463.077,13.061,84.514,-1.47717
44.34,463.577,12.941,83.738,-1.65626
44.39,464.078,12.807,82.87,-1.79802
44.44,464.578,12.668,81.97,-1.9052
44.49,465.078,12.515,80.98,-1.97584
44.54,465.578,12.366,80.017,-1.89151
44.59,466.078,12.212,79.024,-2.0594
44.64,466.578,12.049,77.968,-2.16273
44.69,467.078,11.877,76.852,-2.30537
44.74,467.578,11.694,75.673,-2.40183
44.79,468.078,11.513,74.497,-2.45215
44.84,468.578,11.321,73.254,-2.49776
44.89,469.078,11.122,71.971,-2.57173
44.94,469.578,10.915,70.631,-2.79809
44.99,470.079,10.701,69.242,-2.84781
45.04,470.579,10.483,67.835,-2.8199
45.09,471.079,10.254,66.354,-2.94819
45.14,471.579,10.021,64.845,-3.16696
45.19,472.079,9.778,63.271,-3.21006
45.24,472.579,9.529,61.658,-3.29081
45.29,473.079,9.274,60.01,-3.29189
45.34,473.579,9.012,58.315,-3.37301
45.39,474.079,8.75,56.62,-3.47126
45.44,474.579,8.477,54.852,-3.49445
45.49,475.079,8.204,53.09,-3.5413
45.54,475.58,7.922,51.261,-3.77616
45.59,476.08,7.638,49.422,-3.818
45.64,476.58,7.344,47.519,-3.72358
45.69,477.08,7.049,45.613,-3.88869
45.74,477.58,6.751,43.682,-3.78873
45.79,478.08,6.444,41.701,-3.91764
45.84,478.58,6.156,39.831,-3.85464
45.89,479.08,5.852,37.869,-4.00002
45.94,479.58,5.554,35.937,-3.88084
45.99,480.08,5.249,33.964,-3.95632
46.04,480.58,4.951,32.04,-3.89718
46.09,481.081,4.656,30.125,-3.81962
46.14,481.581,4.363,28.229,-3.72692
46.19,482.081,4.073,26.358,-3.71199
46.24,482.581,3.789,24.515,-3.66384
46.29,483.081,3.511,22.721,-3.52377
46.34,483.581,3.241,20.969,-3.43439
46.39,484.081,2.978,19.269,-3.34358
46.44,484.581,2.724,17.625,-3.22534
46.49,485.081,2.48,16.045,-3.07789
46.54,485.581,2.253,14.581,-2.90879
46.59,486.081,2.031,13.139,-2.8033
46.64,486.582,1.82,11.778,-2.60155
46.69,487.082,1.622,10.496,-2.42514
46.74,487.582,1.438,9.306,-2.23744
46.79,488.082,1.272,8.233,-2.07892
46.84,488.582,1.115,7.213,-1.93647
46.89,489.082,0.9710000,6.284,-1.70078
46.93,489.582,0.8460000,5.475,-1.56894
46.98,490.082,0.7320000,4.736,-1.39929
47.03,490.582,0.6350000,4.11,-1.19951
47.08,491.082,0.5490000,3.551,-1.0251
47.13,491.582,0.4780000,3.094,-0.8559910
47.18,492.083,0.4170000,2.701,-0.6911740
47.23,492.583,0.3700000,2.397,-0.5253020
47.28,493.083,0.3320000,2.145,-0.4336230
47.33,493.583,0.3010000,1.95,-0.3351180
47.38,494.083,0.2800000,1.81,-0.2447660
47.43,494.583,0.2640000,1.707,-0.1712700
47.48,495.083,0.2530000,1.634,-0.1136160
47.53,495.583,0.2460000,1.592,-0.0637774
47.58,496.083,0.2420000,1.567,-0.0347700
47.63,496.583,0.2390000,1.549,-0.0364874
47.68,497.083,0.2370000,1.531,-0.0345725
47.73,497.583,0.2340000,1.515,-0.0305653
47.78,498.084,0.2320000,1.501,-0.0258525
47.83,498.584,0.2300000,1.489,-0.0210279
47.88,499.084,0.2290000,1.479,-0.0175206
47.93,499.584,0.2270000,1.472,-0.0141052
47.98,500.084,0.2260000,1.465,-0.0115093
48.04,500.584,0.2260000,1.46,-0.0089566
48.09,501.084,0.2250000,1.456,-0.0074753
48.14,501.584,0.2240000,1.453,-0.0061815
48.19,502.084,0.2240000,1.45,-0.0051249
48.24,502.584,0.2240000,1.448,-0.0044055
48.29,503.084,0.2230000,1.446,-0.0037204
48.34,503.585,0.2230000,1.444,-0.0027415
48.39,504.085,0.2230000,1.443,-0.0022993
48.44,504.585,0.2230000,1.442,-0.0016566
48.49,505.085,0.2230000,1.441,-0.0020866
48.54,505.585,0.2230000,1.44,-0.0018615
48.59,506.085,0.2220000,1.439,-0.0014073
48.64,506.585,0.2220000,1.438,-0.0012582
48.69,507.085,0.2220000,1.438,-0.0011351
48.74,507.585,0.2220000,1.437,-0.0012515
48.79,508.085,0.2220000,1.437,-0.0007204
48.84,508.585,0.2220000,1.436,-0.0007382
48.89,509.086,0.2220000,1.436,-0.0008524
48.94,509.586,0.2220000,1.436,-0.0010450
48.99,510.086,0.2220000,1.435,-0.0005828
49.04,510.586,0.2220000,1.435,-0.0006310
49.09,511.086,0.2220000,1.435,-0.0004562
49.14,511.586,0.2220000,1.435,-0.0005729
49.19,512.086,0.2220000,1.434,-0.0002583
49.24,512.586,0.2220000,1.434,-0.0002850
49.29,513.086,0.2220000,1.434,-0.0004987
49.34,513.586,0.2220000,1.434,-0.0006990
49.39,514.086,0.2220000,1.433,-0.0003492
49.44,514.587,0.2210000,1.433,-0.0003049
49.49,515.087,0.2210000,1.433,-0.0001207
49.54,515.587,0.2210000,1.433,-0.0003715
49.59,516.087,0.2210000,1.432,-0.0004819
49.64,516.587,0.2210000,1.432,-0.0001429
49.69,517.087,0.2210000,1.432,-0.0003057
49.74,517.587,0.2210000,1.432,-0.0002652
49.79,518.087,0.2210000,1.432,-0.0005336
49.84,518.587,0.2210000,1.431,-0.0005410
49.89,519.087,0.2210000,1.431,-0.0007198
49.94,519.587,0.2210000,1.431,-0.0005077
49.99,520.088,0.2210000,1.431,-0.0005685
50.04,520.588,0.2210000,1.43,-0.0001257
50.09,521.088,0.2210000,1.43,-0.0006955
50.14,521.588,0.2210000,1.43,-0.0004549
50.19,522.088,0.2210000,1.43,-0.0003093
50.24,522.588,0.2210000,1.43,-0.0005027
50.29,523.088,0.2210000,1.429,-0.0003635
50.34,523.588,0.2210000,1.429,-0.0003466
50.39,524.088,0.2210000,1.429,-0.0004458
50.44,524.588,0.2210000,1.429,-0.0006925
50.49,525.088,0.2210000,1.429,-0.0005263
50.54,525.588,0.2210000,1.428,-0.0005458
50.59,526.089,0.2210000,1.428,-0.0007998
50.64,526.589,0.2210000,1.428,-0.0005017
50.69,527.089,0.2210000,1.428,-0.0003100
50.74,527.589,0.2210000,1.427,-0.0006955
50.79,528.089,0.2210000,1.427,-0.0006095
50.84,528.589,0.2210000,1.427,-0.0004627
50.89,529.089,0.2200000,1.427,-0.0006278
50.94,529.589,0.2200000,1.426,-0.0004435
50.99,530.089,0.2200000,1.426,-0.0007091
51.04,530.589,0.2200000,1.426,-0.0005377
51.08,531.089,0.2200000,1.425,-0.0008934
51.13,531.59,0.2200000,1.425,-0.0009526
51.18,532.09,0.2200000,1.425,-0.0006146
51.23,532.59,0.2200000,1.424,-0.0009459
51.28,533.09,0.2200000,1.424,-0.0010176
51.33,533.59,0.2200000,1.423,-0.0008684
51.39,534.09,0.2200000,1.423,-0.0009534
51.44,534.59,0.2200000,1.423,-0.0007663
51.49,535.09,0.2200000,1.422,-0.0011699
51.54,535.59,0.2200000,1.422,-0.0007057
51.59,536.09,0.2200000,1.421,-0.0014042
51.64,536.59,0.2200000,1.421,-0.0009415
51.69,537.091,0.2190000,1.42,-0.0007268
51.74,537.591,0.2190000,1.42,-0.0013292
51.79,538.091,0.2190000,1.419,-0.0009287
51.84,538.591,0.2190000,1.419,-0.0013835
51.89,539.091,0.2190000,1.418,-0.0013200
51.93,539.591,0.2190000,1.418,-0.0010270
51.98,540.091,0.2190000,1.417,-0.0010012
52.03,540.591,0.2190000,1.417,-0.0010566
52.08,541.091,0.2190000,1.416,-0.0011144
52.13,541.591,0.2190000,1.416,-0.0008515
52.18,542.091,0.2190000,1.415,-0.0008426
52.23,542.592,0.2190000,1.415,-0.0006319
52.28,543.092,0.2190000,1.414,-0.0008476
52.33,543.592,0.2190000,1.414,-0.0007913
52.38,544.092,0.2180000,1.414,-0.0008669
52.43,544.592,0.2180000,1.413,-0.0010477
52.48,545.092,0.2180000,1.413,-0.0009197
52.53,545.592,0.2180000,1.412,-0.0009369
52.58,546.092,0.2180000,1.412,-0.0008329
52.63,546.592,0.2180000,1.411,-0.0011753
52.68,547.092,0.2180000,1.411,-0.0008047
52.73,547.592,0.2180000,1.41,-0.0011056
52.78,548.093,0.2180000,1.41,-0.0008034
52.83,548.593,0.2180000,1.41,-0.0009222
52.88,549.093,0.2180000,1.409,-0.0008042
52.93,549.593,0.2180000,1.409,-0.0009019
52.98,550.093,0.2180000,1.408,-0.0006365
53.03,550.593,0.2180000,1.408,-0.0008522
53.08,551.093,0.2180000,1.407,-0.0004344
53.13,551.593,0.2170000,1.407,-0.0007558
53.18,552.093,0.2170000,1.407,-0.0006704
53.23,552.593,0.2170000,1.406,-0.0005285
53.28,553.093,0.2170000,1.406,-0.0007015
53.33,553.593,0.2170000,1.406,-0.0011911
53.38,554.094,0.2170000,1.405,-0.0011179
53.43,554.594,0.2170000,1.405,-0.0008705
53.48,555.094,0.2170000,1.404,-0.0012726
53.53,555.594,0.2170000,1.404,-0.0014257
53.58,556.094,0.2170000,1.403,-0.0008777
53.63,556.594,0.2170000,1.403,-0.0005599
53.68,557.094,0.2170000,1.402,-0.0007848
53.73,557.594,0.2170000,1.402,-0.0010601
53.78,558.094,0.2170000,1.401,-0.0009313
53.83,558.594,0.2160000,1.401,-0.0009849
53.88,559.094,0.2160000,1.4,-0.0012180
53.93,559.595,0.2160000,1.4,-0.0009983
53.98,560.095,0.2160000,1.399,-0.0009369
54.03,560.595,0.2160000,1.399,-0.0013040
54.08,561.095,0.2160000,1.398,-0.0010166
54.13,561.595,0.2160000,1.398,-0.0008228
54.18,562.095,0.2160000,1.397,-0.0007485
54.23,562.595,0.2160000,1.397,-0.0009262
54.28,563.095,0.2160000,1.396,-0.0006639
54.33,563.595,0.2160000,1.396,-0.0009537
54.38,564.095,0.2160000,1.395,-0.0011825
54.43,564.595,0.2160000,1.395,-0.0010989
54.48,565.096,0.2150000,1.394,-0.0009916
54.53,565.596,0.2150000,1.394,-0.0011819
54.58,566.096,0.2150000,1.393,-0.0013207
54.63,566.596,0.2150000,1.393,-0.0008914
54.68,567.096,0.2150000,1.392,-0.0011483
54.73,567.596,0.2150000,1.392,-0.0012350
54.78,568.096,0.2150000,1.391,-0.0014032
54.83,568.596,0.2150000,1.39,-0.0012006
54.88,569.096,0.2150000,1.39,-0.0012985
54.93,569.596,0.2150000,1.389,-0.0011311
54.98,570.096,0.2150000,1.389,-0.0009615
55.03,570.597,0.2150000,1.388,-0.0010261
55.08,571.097,0.2140000,1.387,-0.0013813
55.13,571.597,0.2140000,1.387,-0.0008358
55.18,572.097,0.2140000,1.386,-0.0010080
55.23,572.597,0.2140000,1.386,-0.0010641
55.28,573.097,0.2140000,1.385,-0.0011801
55.33,573.597,0.2140000,1.384,-0.0010212
55.38,574.097,0.2140000,1.384,-0.0012482
55.43,574.597,0.2140000,1.383,-0.0014643
55.48,575.097,0.2140000,1.383,-0.0014750
55.53,575.597,0.2140000,1.382,-0.0014051
55.58,576.098,0.2130000,1.381,-0.0015852
55.63,576.598,0.2130000,1.381,-0.0016133
55.68,577.098,0.2130000,1.38,-0.0010533
55.73,577.598,0.2130000,1.379,-0.0014273
55.78,578.098,0.2130000,1.379,-0.0014287
55.83,578.598,0.2130000,1.378,-0.0014194
55.88,579.098,0.2130000,1.377,-0.0012049
55.93,579.598,0.2130000,1.377,-0.0012013
55.98,580.098,0.2130000,1.376,-0.0011760
56.03,580.598,0.2130000,1.375,-0.0012590
56.08,581.098,0.2120000,1.374,-0.0015379
56.13,581.598,0.2120000,1.374,-0.0018415
56.18,582.099,0.2120000,1.373,-0.0015296
56.23,582.599,0.2120000,1.372,-0.0014794
56.28,583.099,0.2120000,1.372,-0.0016920
56.33,583.599,0.2120000,1.371,-0.0014781
56.38,584.099,0.2120000,1.37,-0.0013765
56.43,584.599,0.2120000,1.369,-0.0015464
56.48,585.099,0.2110000,1.369,-0.0015303
56.53,585.599,0.2110000,1.368,-0.0012391
56.58,586.099,0.2110000,1.367,-0.0012856
56.63,586.599,0.2110000,1.366,-0.0015639
56.68,587.099,0.2110000,1.365,-0.0018243
56.73,587.6,0.2110000,1.364,-0.0018658
56.78,588.1,0.2110000,1.363,-0.0020690
56.83,588.6,0.2110000,1.363,-0.0020420
56.88,589.1,0.2100000,1.362,-0.0020526
56.93,589.6,0.2100000,1.361,-0.0021729
56.97,590,0.2100000,1.36,-0.0021828