File: R/rHDPE_App/app/www/Output/TGA/Condensed_Data/Resin13_0_.csv
0.6500000,30,17.658,100.012,0.0048191
0.7200000,30.5001,17.658,100.014,0.0027300
0.7900000,31.0002,17.659,100.016,0.0029362
0.8600000,31.5003,17.659,100.018,0.0019340
0.9200000,32.0004,17.659,100.019,0.0017033
0.9800000,32.5004,17.66,100.02,0.0021596
1.04,33.0005,17.66,100.021,0.0017394
1.1,33.5006,17.66,100.022,0.0018731
1.16,34.0007,17.66,100.023,0.0023779
1.22,34.5008,17.66,100.024,0.0016716
1.27,35.0009,17.66,100.025,0.0004140
1.33,35.501,17.66,100.025,0.0016430
1.38,36.0011,17.661,100.026,0.0007644
1.44,36.5012,17.661,100.026,0.0015689
1.49,37.0013,17.661,100.027,0.0004530
1.55,37.5013,17.661,100.027,0.0016511
1.61,38.0014,17.661,100.028,0.0004979
1.66,38.5015,17.661,100.028,0.0009917
1.71,39.0016,17.661,100.029,0.0007901
1.77,39.5017,17.661,100.029,0.0013287
1.82,40.0018,17.661,100.03,0.0012266
1.87,40.5019,17.661,100.03,0.0008318
1.93,41.002,17.661,100.031,0.0010735
1.98,41.5021,17.662,100.031,0.0008763
2.03,42.0021,17.662,100.032,0.0007289
2.09,42.5022,17.662,100.032,0.0004367
2.14,43.0023,17.662,100.033,0.0007266
2.19,43.5024,17.662,100.033,0.0002904
2.24,44.0025,17.662,100.034,0.0009665
2.3,44.5026,17.662,100.034,0.0011101
2.35,45.0027,17.662,100.034,0.0005304
2.4,45.5028,17.662,100.035,0.0007220
2.46,46.0029,17.662,100.035,0.0007207
2.51,46.5029,17.662,100.036,0.0007671
2.56,47.003,17.662,100.036,0.0009570
2.61,47.5031,17.663,100.037,0.0020068
2.66,48.0032,17.663,100.038,0.0017644
2.72,48.5033,17.663,100.039,0.0020471
2.77,49.0034,17.663,100.039,0.0011887
2.82,49.5035,17.663,100.04,-0.0005222
2.87,50.0036,17.663,100.04,0.0000000
2.93,50.5037,17.663,100.04,-0.0001894
2.98,51.0038,17.663,100.04,0.0000946
3.03,51.5038,17.663,100.04,0.0003779
3.08,52.0039,17.663,100.04,0.0007078
3.13,52.504,17.663,100.041,0.0009419
3.18,53.0041,17.663,100.041,0.0004231
3.23,53.5042,17.663,100.041,0.0004227
3.29,54.0043,17.663,100.042,0.0004691
3.34,54.5044,17.663,100.042,0.0008436
3.39,55.0045,17.663,100.042,0.0004214
3.44,55.5046,17.664,100.043,0.0007018
3.49,56.0046,17.664,100.043,0.0005141
3.54,56.5047,17.664,100.044,0.0003268
3.59,57.0048,17.664,100.044,0.0006062
3.64,57.5049,17.664,100.044,0.0011648
3.69,58.005,17.664,100.045,0.0005121
3.74,58.5051,17.664,100.045,0.0007912
3.79,59.0052,17.664,100.046,0.0008368
3.85,59.5053,17.664,100.046,0.0004648
3.9,60.0054,17.664,100.046,0.0007898
3.95,60.5054,17.664,100.047,0.0009284
4,61.0055,17.664,100.047,0.0004639
4.05,61.5056,17.664,100.047,0.0008805
4.1,62.0057,17.664,100.048,0.0009733
4.15,62.5058,17.664,100.048,0.0008339
4.2,63.0059,17.665,100.049,0.0009261
4.25,63.506,17.665,100.049,0.0006479
4.3,64.0061,17.665,100.049,0.0004163
4.35,64.5062,17.665,100.05,0.0006007
4.4,65.0063,17.665,100.05,0.0001848
4.45,65.5063,17.665,100.05,0.0004157
4.5,66.0064,17.665,100.051,0.0005999
4.55,66.5065,17.665,100.051,0.0009220
4.6,67.0066,17.665,100.051,0.0011986
4.65,67.5067,17.665,100.052,0.0005529
4.7,68.0068,17.665,100.052,0.0012897
4.75,68.5069,17.665,100.053,0.0039111
4.8,69.007,17.665,100.053,0.0003219
4.85,69.5071,17.665,100.053,0.0000000
4.91,70.0071,17.665,100.054,0.0003222
4.96,70.5072,17.665,100.054,0.0003682
5.01,71.0073,17.666,100.054,0.0004138
5.06,71.5074,17.666,100.055,0.0008276
5.11,72.0075,17.666,100.055,0.0007355
5.16,72.5076,17.666,100.055,0.0011488
5.21,73.0077,17.666,100.056,0.0006431
5.26,73.5078,17.666,100.056,0.0005051
5.31,74.0079,17.666,100.056,0.0005967
5.36,74.5079,17.666,100.056,0.0005964
5.41,75.008,17.666,100.057,0.0002293
5.46,75.5081,17.666,100.057,0.0002752
5.51,76.0082,17.666,100.057,0.0005964
5.56,76.5083,17.666,100.058,0.0003668
5.61,77.0084,17.666,100.058,0.0006874
5.66,77.5085,17.666,100.058,0.0005957
5.71,78.0086,17.666,100.058,0.0007329
5.76,78.5087,17.666,100.059,0.0006871
5.81,79.0088,17.666,100.059,0.0003663
5.86,79.5088,17.666,100.059,-0.0000000
5.91,80.0089,17.666,100.059,0.0001832
5.96,80.509,17.666,100.059,0.0003662
6.01,81.0091,17.666,100.059,0.0002747
6.06,81.5092,17.667,100.06,0.0003662
6.11,82.0093,17.667,100.06,0.0005037
6.16,82.5094,17.667,100.06,0.0005496
6.21,83.0095,17.667,100.06,0.0006412
6.26,83.5096,17.667,100.061,0.0003207
6.31,84.0096,17.667,100.061,0.0004123
6.36,84.5097,17.667,100.061,0.0003207
6.41,85.0098,17.667,100.061,0.0004125
6.46,85.5099,17.667,100.061,-0.0000458
6.51,86.01,17.667,100.062,0.0002748
6.56,86.5101,17.667,100.062,0.0001831
6.61,87.0102,17.667,100.062,0.0004120
6.66,87.5103,17.667,100.062,0.0000000
6.71,88.0104,17.667,100.062,-0.0000000
6.76,88.5104,17.667,100.062,0.0003203
6.81,89.0105,17.667,100.063,0.0001830
6.86,89.5106,17.667,100.063,0.0001372
6.91,90.0107,17.667,100.063,0.0005030
6.96,90.5108,17.667,100.063,0.0001372
7.01,91.0109,17.667,100.063,0.0003657
7.06,91.511,17.667,100.063,0.0004116
7.11,92.0111,17.667,100.063,0.0002288
7.16,92.5112,17.667,100.063,0.0000458
7.21,93.0113,17.667,100.063,0.0000000
7.26,93.5113,17.667,100.063,0.0002743
7.31,94.0114,17.667,100.063,0.0004114
7.36,94.5115,17.667,100.064,0.0000000
7.41,95.0116,17.667,100.064,0.0002284
7.46,95.5117,17.667,100.064,-0.0003197
7.51,96.0118,17.667,100.064,0.0005032
7.56,96.5119,17.667,100.064,0.0004118
7.61,97.012,17.667,100.064,0.0000457
7.66,97.5121,17.667,100.064,-0.0000915
7.71,98.0121,17.667,100.064,0.0003203
7.76,98.5122,17.667,100.064,0.0000000
7.81,99.0123,17.667,100.064,0.0000000
7.86,99.5124,17.667,100.064,-0.0000000
7.91,100.013,17.667,100.064,0.0000914
7.96,100.513,17.667,100.064,0.0000914
8.01,101.013,17.667,100.065,-0.0000000
8.06,101.513,17.667,100.065,-0.0002742
8.11,102.013,17.667,100.065,-0.0001828
8.16,102.513,17.667,100.065,0.0000915
8.21,103.013,17.667,100.065,0.0001831
8.26,103.513,17.667,100.065,0.0001374
8.31,104.013,17.667,100.065,0.0000916
8.36,104.513,17.667,100.065,0.0000000
8.41,105.013,17.667,100.065,0.0000000
8.46,105.513,17.667,100.065,0.0001374
8.51,106.014,17.667,100.065,0.0000000
8.56,106.514,17.667,100.065,0.0000000
8.61,107.014,17.667,100.065,-0.0004114
8.66,107.514,17.667,100.065,-0.0000913
8.71,108.014,17.667,100.065,-0.0002286
8.76,108.514,17.667,100.065,-0.0003664
8.81,109.014,17.667,100.065,0.0000000
8.86,109.514,17.667,100.065,-0.0005035
8.91,110.014,17.667,100.065,-0.0001832
8.96,110.514,17.667,100.064,0.0002747
9.01,111.014,17.667,100.065,0.0000000
9.06,111.515,17.667,100.064,-0.0001830
9.11,112.015,17.667,100.064,0.0000000
9.16,112.515,17.667,100.064,-0.0001832
9.21,113.015,17.667,100.064,-0.0001374
9.26,113.515,17.667,100.064,0.0000000
9.31,114.015,17.667,100.064,-0.0003203
9.36,114.515,17.667,100.064,-0.0003203
9.41,115.015,17.667,100.064,-0.0003204
9.46,115.515,17.667,100.064,-0.0003663
9.51,116.015,17.667,100.064,-0.0006865
9.56,116.515,17.667,100.064,-0.0003664
9.61,117.016,17.667,100.064,-0.0003204
9.66,117.516,17.667,100.064,-0.0000915
9.71,118.016,17.667,100.063,0.0002745
9.76,118.516,17.667,100.063,-0.0000000
9.81,119.016,17.667,100.063,-0.0000916
9.86,119.516,17.667,100.063,0.0003661
9.91,120.016,17.667,100.063,0.0000000
9.96,120.516,17.667,100.063,0.0000458
10.01,121.016,17.667,100.063,-0.0001373
10.06,121.516,17.667,100.063,-0.0005489
10.11,122.016,17.667,100.063,-0.0005497
10.16,122.517,17.667,100.063,-0.0004584
10.21,123.017,17.667,100.062,-0.0004126
10.26,123.517,17.667,100.062,-0.0007329
10.31,124.017,17.667,100.062,-0.0003210
10.36,124.517,17.667,100.062,-0.0002291
10.41,125.017,17.667,100.062,-0.0000917
10.46,125.517,17.667,100.062,0.0001376
10.51,126.017,17.667,100.062,-0.0003671
10.56,126.517,17.667,100.062,-0.0000917
10.61,127.017,17.667,100.062,-0.0000459
10.66,127.517,17.667,100.061,-0.0000917
10.71,128.018,17.667,100.061,0.0001833
10.76,128.518,17.667,100.061,-0.0001375
10.81,129.018,17.667,100.061,-0.0003664
10.86,129.518,17.667,100.061,-0.0000458
10.91,130.018,17.667,100.061,0.0000000
10.96,130.518,17.667,100.061,0.0002289
11.01,131.018,17.667,100.061,-0.0001831
11.06,131.518,17.667,100.061,0.0000000
11.11,132.018,17.667,100.061,0.0000000
11.16,132.518,17.667,100.061,-0.0000917
11.21,133.018,17.667,100.061,-0.0003208
11.26,133.518,17.667,100.061,-0.0004125
11.31,134.019,17.667,100.061,-0.0004584
11.36,134.519,17.667,100.061,-0.0004587
11.41,135.019,17.667,100.061,0.0000000
11.46,135.519,17.667,100.06,-0.0002750
11.51,136.019,17.667,100.06,-0.0005039
11.56,136.519,17.667,100.06,-0.0004118
11.61,137.019,17.667,100.06,-0.0004115
11.66,137.519,17.666,100.06,-0.0003656
11.71,138.019,17.666,100.059,-0.0008223
11.76,138.519,17.666,100.059,-0.0007317
11.81,139.019,17.666,100.059,-0.0010069
11.86,139.52,17.666,100.058,-0.0005950
11.91,140.02,17.666,100.058,-0.0012351
11.96,140.52,17.666,100.057,-0.0013266
12.01,141.02,17.666,100.057,-0.0008225
12.06,141.52,17.666,100.056,-0.0011859
12.11,142.02,17.666,100.056,-0.0010030
12.16,142.52,17.666,100.055,-0.0016398
12.21,143.02,17.666,100.054,-0.0016373
12.26,143.52,17.665,100.053,-0.0019108
12.31,144.02,17.665,100.052,-0.0020942
12.36,144.52,17.665,100.051,-0.0022769
12.41,145.021,17.665,100.05,-0.0021874
12.46,145.521,17.665,100.049,-0.0019157
12.51,146.021,17.664,100.048,-0.0017340
12.56,146.521,17.664,100.047,-0.0015979
12.61,147.021,17.664,100.046,-0.0019176
12.66,147.521,17.664,100.045,-0.0017356
12.71,148.021,17.664,100.044,-0.0017836
12.76,148.521,17.664,100.044,-0.0015568
12.81,149.021,17.664,100.043,-0.0019240
12.86,149.521,17.663,100.042,-0.0019235
12.91,150.021,17.663,100.041,-0.0017391
12.96,150.522,17.663,100.04,-0.0015572
13.01,151.022,17.663,100.039,-0.0015130
13.06,151.522,17.663,100.039,-0.0017438
13.11,152.022,17.663,100.038,-0.0016539
13.16,152.522,17.663,100.037,-0.0012414
13.21,153.022,17.662,100.036,-0.0008275
13.26,153.522,17.662,100.036,-0.0011028
13.31,154.022,17.662,100.035,-0.0015159
13.36,154.522,17.662,100.035,-0.0012861
13.41,155.022,17.662,100.034,-0.0012859
13.46,155.522,17.662,100.033,-0.0011029
13.51,156.023,17.662,100.033,-0.0011489
13.56,156.523,17.662,100.032,-0.0013322
13.61,157.023,17.662,100.031,-0.0014677
13.66,157.523,17.661,100.031,-0.0017885
13.71,158.023,17.661,100.03,-0.0014217
13.76,158.523,17.661,100.029,-0.0012389
13.81,159.023,17.661,100.029,-0.0011923
13.86,159.523,17.661,100.028,-0.0011467
13.91,160.023,17.661,100.028,-0.0011462
13.96,160.523,17.661,100.027,-0.0011933
14.01,161.023,17.661,100.026,-0.0012394
14.06,161.523,17.66,100.026,-0.0011934
14.11,162.024,17.66,100.025,-0.0012395
14.16,162.524,17.66,100.024,-0.0012854
14.21,163.024,17.66,100.024,-0.0012394
14.26,163.524,17.66,100.023,-0.0014224
14.31,164.024,17.66,100.022,-0.0013307
14.36,164.524,17.66,100.022,-0.0014203
14.41,165.024,17.66,100.021,-0.0012374
14.46,165.524,17.66,100.02,-0.0017878
14.51,166.024,17.659,100.019,-0.0020170
14.56,166.524,17.659,100.019,-0.0009154
14.61,167.024,17.659,100.018,-0.0012814
14.66,167.525,17.659,100.017,-0.0017399
14.71,168.025,17.659,100.017,-0.0014207
14.76,168.525,17.659,100.016,-0.0011012
14.81,169.025,17.659,100.015,-0.0015134
14.86,169.525,17.659,100.014,-0.0011908
14.91,170.025,17.658,100.014,-0.0014656
14.96,170.525,17.658,100.013,-0.0018315
15.01,171.025,17.658,100.012,-0.0018302
15.06,171.525,17.658,100.011,-0.0012836
15.11,172.025,17.658,100.011,-0.0010092
15.16,172.525,17.658,100.01,-0.0012374
15.21,173.026,17.658,100.01,-0.0007787
15.26,173.526,17.658,100.009,-0.0015099
15.31,174.026,17.657,100.008,-0.0016041
15.36,174.526,17.657,100.006,-0.0060844
15.41,175.026,17.657,100.004,-0.0035056
15.46,175.526,17.656,100.002,-0.0012029
15.51,176.026,17.656,100.002,-0.0010753
15.56,176.526,17.656,100.001,-0.0014946
15.62,177.026,17.656,100.001,-0.0013960
15.67,177.526,17.656,100,-0.0043834
15.72,178.026,17.656,100,-0.0011600
15.77,178.527,17.656,99.999,0.0006468
15.82,179.027,17.656,99.998,-0.0012881
15.87,179.527,17.655,99.997,-0.0008690
15.92,180.027,17.655,99.996,-0.0014575
15.97,180.527,17.655,99.996,-0.0009537
16.02,181.027,17.655,99.995,-0.0005439
16.07,181.527,17.655,99.994,-0.0015394
16.12,182.027,17.655,99.993,-0.0021733
16.17,182.527,17.655,99.992,-0.0016784
16.22,183.027,17.654,99.991,-0.0007265
16.27,183.527,17.654,99.99,-0.0012728
16.31,184.028,17.654,99.989,-0.0024585
16.36,184.528,17.654,99.988,-0.0025079
16.41,185.028,17.654,99.987,-0.0022368
16.46,185.528,17.654,99.986,-0.0015070
16.51,186.028,17.653,99.985,-0.0021940
16.56,186.528,17.653,99.984,-0.0028355
16.61,187.028,17.653,99.983,-0.0019204
16.66,187.528,17.653,99.982,-0.0010974
16.71,188.028,17.653,99.981,-0.0014642
16.76,188.528,17.652,99.98,-0.0027460
16.81,189.028,17.652,99.979,-0.0027007
16.86,189.528,17.652,99.978,-0.0018778
16.91,190.029,17.652,99.976,-0.0018782
16.96,190.529,17.652,99.975,-0.0023825
17.01,191.029,17.651,99.974,-0.0028859
17.06,191.529,17.651,99.973,-0.0025655
17.11,192.029,17.651,99.972,-0.0016952
17.16,192.529,17.651,99.971,-0.0015570
17.21,193.029,17.651,99.97,-0.0023363
17.26,193.529,17.65,99.969,-0.0031142
17.31,194.029,17.65,99.967,-0.0026557
17.36,194.529,17.65,99.966,-0.0021057
17.41,195.029,17.65,99.965,-0.0023345
17.46,195.53,17.65,99.964,-0.0021512
17.51,196.03,17.649,99.963,-0.0023814
17.56,196.53,17.649,99.962,-0.0022450
17.61,197.03,17.649,99.96,-0.0019248
17.66,197.53,17.649,99.959,-0.0029315
17.72,198.03,17.649,99.958,-0.0024728
17.77,198.53,17.648,99.957,-0.0028396
17.82,199.03,17.648,99.955,-0.0027039
17.87,199.53,17.648,99.954,-0.0026564
17.92,200.03,17.648,99.953,-0.0019698
17.97,200.53,17.647,99.952,-0.0024296
18.02,201.031,17.647,99.951,-0.0024755
18.07,201.531,17.647,99.949,-0.0025672
18.12,202.031,17.647,99.948,-0.0023847
18.17,202.531,17.647,99.947,-0.0026135
18.22,203.031,17.646,99.945,-0.0028873
18.27,203.531,17.646,99.944,-0.0027946
18.32,204.031,17.646,99.943,-0.0024292
18.37,204.531,17.646,99.942,-0.0021998
18.42,205.031,17.645,99.94,-0.0025206
18.47,205.531,17.645,99.939,-0.0026567
18.52,206.031,17.645,99.938,-0.0024732
18.57,206.532,17.645,99.937,-0.0032523
18.62,207.032,17.645,99.935,-0.0022452
18.67,207.532,17.644,99.934,-0.0025648
18.72,208.032,17.644,99.933,-0.0027035
18.77,208.532,17.644,99.931,-0.0023337
18.82,209.032,17.644,99.93,-0.0026087
18.87,209.532,17.643,99.929,-0.0026092
18.92,210.032,17.643,99.927,-0.0024308
18.97,210.532,17.643,99.926,-0.0024290
19.02,211.032,17.643,99.925,-0.0028878
19.07,211.532,17.642,99.923,-0.0028422
19.12,212.033,17.642,99.922,-0.0029775
19.17,212.533,17.642,99.921,-0.0025209
19.22,213.033,17.642,99.919,-0.0027963
19.27,213.533,17.642,99.918,-0.0026142
19.32,214.033,17.641,99.917,-0.0025677
19.37,214.533,17.641,99.915,-0.0026113
19.42,215.033,17.641,99.914,-0.0029304
19.47,215.533,17.641,99.912,-0.0030239
19.52,216.033,17.64,99.911,-0.0026123
19.57,216.533,17.64,99.91,-0.0023819
19.62,217.033,17.64,99.908,-0.0027047
19.67,217.533,17.64,99.907,-0.0027938
19.72,218.034,17.639,99.905,-0.0028886
19.77,218.534,17.639,99.904,-0.0026569
19.82,219.034,17.639,99.903,-0.0029776
19.87,219.534,17.639,99.901,-0.0028926
19.92,220.034,17.638,99.9,-0.0026142
19.97,220.534,17.638,99.898,-0.0030686
20.02,221.034,17.638,99.897,-0.0026097
20.07,221.534,17.637,99.895,-0.0029310
20.12,222.034,17.637,99.894,-0.0025652
20.17,222.534,17.637,99.892,-0.0033892
20.22,223.034,17.637,99.891,-0.0029773
20.27,223.535,17.636,99.89,-0.0028867
20.32,224.035,17.636,99.888,-0.0029781
20.37,224.535,17.636,99.886,-0.0030692
20.42,225.035,17.636,99.885,-0.0026569
20.47,225.535,17.635,99.884,-0.0032976
20.52,226.035,17.635,99.882,-0.0029326
20.57,226.535,17.635,99.881,-0.0028873
20.62,227.035,17.635,99.879,-0.0031616
20.67,227.535,17.634,99.877,-0.0031150
20.72,228.035,17.634,99.876,-0.0030261
20.77,228.535,17.634,99.874,-0.0029358
20.82,229.036,17.634,99.873,-0.0035754
20.87,229.536,17.633,99.871,-0.0031614
20.92,230.036,17.633,99.87,-0.0030239
20.97,230.536,17.633,99.868,-0.0033434
21.02,231.036,17.632,99.867,-0.0028838
21.07,231.536,17.632,99.865,-0.0032973
21.12,232.036,17.632,99.863,-0.0032530
21.17,232.536,17.632,99.862,-0.0038028
21.22,233.036,17.631,99.86,-0.0028427
21.27,233.536,17.631,99.859,-0.0031608
21.32,234.036,17.631,99.857,-0.0034353
21.37,234.537,17.63,99.855,-0.0030711
21.42,235.037,17.63,99.854,-0.0030706
21.47,235.537,17.63,99.852,-0.0033465
21.52,236.037,17.63,99.85,-0.0033507
21.57,236.537,17.629,99.849,-0.0028880
21.62,237.037,17.629,99.847,-0.0034818
21.67,237.537,17.629,99.845,-0.0034811
21.72,238.037,17.628,99.844,-0.0032515
21.77,238.537,17.628,99.842,-0.0030220
21.82,239.037,17.628,99.84,-0.0033409
21.87,239.537,17.627,99.839,-0.0030672
21.92,240.038,17.627,99.837,-0.0035715
21.97,240.538,17.627,99.835,-0.0037122
22.02,241.038,17.627,99.834,-0.0036664
22.07,241.538,17.626,99.832,-0.0033904
22.12,242.038,17.626,99.83,-0.0033905
22.17,242.538,17.626,99.829,-0.0033898
22.22,243.038,17.625,99.827,-0.0031153
22.27,243.538,17.625,99.825,-0.0035737
22.32,244.038,17.625,99.823,-0.0034334
22.37,244.538,17.624,99.822,-0.0033416
22.42,245.038,17.624,99.82,-0.0036113
22.47,245.538,17.624,99.818,-0.0037487
22.52,246.039,17.624,99.817,-0.0034319
22.57,246.539,17.623,99.815,-0.0034372
22.62,247.039,17.623,99.813,-0.0036681
22.67,247.539,17.623,99.811,-0.0033501
22.72,248.039,17.622,99.809,-0.0036714
22.77,248.539,17.622,99.808,-0.0037639
22.82,249.039,17.622,99.806,-0.0032578
22.87,249.539,17.621,99.804,-0.0033486
22.92,250.039,17.621,99.802,-0.0037580
22.97,250.539,17.621,99.801,-0.0033873
23.02,251.039,17.62,99.799,-0.0035682
23.07,251.54,17.62,99.797,-0.0038859
23.12,252.04,17.62,99.795,-0.0040256
23.17,252.54,17.619,99.793,-0.0037979
23.22,253.04,17.619,99.791,-0.0035705
23.27,253.54,17.619,99.79,-0.0035698
23.32,254.04,17.618,99.788,-0.0036630
23.37,254.54,17.618,99.786,-0.0036196
23.42,255.04,17.618,99.784,-0.0039886
23.47,255.54,17.617,99.782,-0.0037122
23.52,256.04,17.617,99.78,-0.0037115
23.57,256.54,17.617,99.778,-0.0040293
23.62,257.041,17.616,99.776,-0.0038426
23.67,257.541,17.616,99.774,-0.0035276
23.72,258.041,17.616,99.772,-0.0038941
23.77,258.541,17.615,99.77,-0.0039893
23.82,259.041,17.615,99.769,-0.0042147
23.87,259.541,17.615,99.767,-0.0046330
23.92,260.041,17.614,99.765,-0.0036677
23.97,260.541,17.614,99.763,-0.0041133
24.02,261.041,17.614,99.761,-0.0039320
24.07,261.541,17.613,99.759,-0.0039363
24.12,262.041,17.613,99.757,-0.0040811
24.17,262.542,17.613,99.755,-0.0036718
24.22,263.042,17.612,99.753,-0.0038977
24.27,263.542,17.612,99.751,-0.0040330
24.32,264.042,17.612,99.749,-0.0037580
24.37,264.542,17.611,99.747,-0.0041261
24.42,265.042,17.611,99.745,-0.0038059
24.47,265.542,17.611,99.743,-0.0040729
24.52,266.042,17.61,99.741,-0.0043916
24.57,266.542,17.61,99.739,-0.0041651
24.62,267.042,17.61,99.737,-0.0043064
24.67,267.542,17.609,99.735,-0.0039398
24.72,268.043,17.609,99.733,-0.0042125
24.77,268.543,17.608,99.731,-0.0043498
24.82,269.043,17.608,99.729,-0.0044439
24.87,269.543,17.608,99.727,-0.0042148
24.92,270.043,17.607,99.724,-0.0045388
24.97,270.543,17.607,99.722,-0.0040826
25.02,271.043,17.607,99.72,-0.0042621
25.07,271.543,17.606,99.718,-0.0039413
25.12,272.043,17.606,99.716,-0.0043546
25.17,272.543,17.605,99.714,-0.0042187
25.22,273.043,17.605,99.712,-0.0043996
25.27,273.543,17.605,99.71,-0.0043483
25.32,274.044,17.604,99.708,-0.0040256
25.37,274.544,17.604,99.705,-0.0043443
25.42,275.044,17.604,99.703,-0.0041209
25.47,275.544,17.603,99.701,-0.0041705
25.52,276.044,17.603,99.699,-0.0041705
25.57,276.544,17.602,99.697,-0.0046729
25.62,277.044,17.602,99.695,-0.0043498
25.67,277.544,17.602,99.693,-0.0041682
25.72,278.044,17.601,99.69,-0.0043064
25.77,278.544,17.601,99.688,-0.0043980
25.82,279.044,17.601,99.686,-0.0043538
25.87,279.545,17.6,99.684,-0.0044455
25.92,280.045,17.6,99.682,-0.0044414
25.97,280.545,17.599,99.679,-0.0044414
26.02,281.045,17.599,99.677,-0.0047144
26.07,281.545,17.599,99.675,-0.0045330
26.12,282.045,17.598,99.673,-0.0042597
26.17,282.545,17.598,99.67,-0.0039835
26.22,283.045,17.597,99.668,-0.0044429
26.27,283.545,17.597,99.666,-0.0049908
26.32,284.045,17.597,99.664,-0.0050384
26.37,284.545,17.596,99.661,-0.0049514
26.42,285.046,17.596,99.659,-0.0044454
26.47,285.546,17.595,99.657,-0.0043980
26.52,286.046,17.595,99.654,-0.0046261
26.57,286.546,17.595,99.652,-0.0047143
26.62,287.046,17.594,99.65,-0.0047592
26.67,287.546,17.594,99.647,-0.0048993
26.72,288.046,17.593,99.645,-0.0048103
26.77,288.546,17.593,99.643,-0.0048104
26.82,289.046,17.592,99.64,-0.0048077
26.87,289.546,17.592,99.638,-0.0048535
26.92,290.046,17.592,99.635,-0.0048060
26.97,290.547,17.591,99.633,-0.0048517
27.02,291.047,17.591,99.63,-0.0052656
27.07,291.547,17.59,99.628,-0.0048993
27.12,292.047,17.59,99.626,-0.0044831
27.17,292.547,17.589,99.623,-0.0045737
27.22,293.047,17.589,99.621,-0.0049396
27.27,293.547,17.589,99.618,-0.0050470
27.32,294.047,17.588,99.616,-0.0050917
27.37,294.547,17.588,99.614,-0.0054029
27.42,295.047,17.587,99.611,-0.0049514
27.47,295.547,17.587,99.609,-0.0048562
27.52,296.048,17.586,99.606,-0.0048993
27.57,296.548,17.586,99.604,-0.0051712
27.62,297.048,17.586,99.601,-0.0056735
27.67,297.548,17.585,99.599,-0.0051720
27.72,298.048,17.585,99.596,-0.0056735
27.77,298.548,17.584,99.593,-0.0052217
27.82,299.048,17.584,99.591,-0.0052723
27.87,299.548,17.583,99.588,-0.0050917
27.92,300.048,17.583,99.586,-0.0050917
27.97,300.548,17.582,99.583,-0.0052265
28.02,301.048,17.582,99.581,-0.0055963
28.07,301.548,17.581,99.578,-0.0055963
28.12,302.049,17.581,99.575,-0.0051358
28.17,302.549,17.581,99.573,-0.0055881
28.22,303.049,17.58,99.57,-0.0051693
28.27,303.549,17.58,99.567,-0.0051722
28.32,304.049,17.579,99.565,-0.0052169
28.37,304.549,17.579,99.562,-0.0055433
28.42,305.049,17.578,99.559,-0.0055911
28.47,305.549,17.578,99.556,-0.0054567
28.52,306.049,17.577,99.554,-0.0056849
28.57,306.549,17.577,99.551,-0.0055434
28.62,307.049,17.576,99.548,-0.0056350
28.68,307.55,17.576,99.545,-0.0058640
28.73,308.05,17.575,99.543,-0.0050796
28.78,308.55,17.575,99.54,-0.0056319
28.83,309.05,17.574,99.537,-0.0056777
28.88,309.55,17.574,99.534,-0.0056339
28.93,310.05,17.573,99.531,-0.0053990
28.98,310.55,17.573,99.529,-0.0056288
29.03,311.05,17.572,99.526,-0.0060864
29.08,311.55,17.572,99.523,-0.0059927
29.13,312.05,17.571,99.52,-0.0059469
29.18,312.55,17.571,99.517,-0.0059491
29.23,313.051,17.57,99.514,-0.0056745
29.28,313.551,17.57,99.511,-0.0060897
29.33,314.051,17.569,99.508,-0.0057256
29.38,314.551,17.569,99.505,-0.0057256
29.43,315.051,17.568,99.502,-0.0058204
29.48,315.551,17.568,99.499,-0.0063268
29.53,316.051,17.567,99.496,-0.0059110
29.58,316.551,17.566,99.493,-0.0060942
29.63,317.051,17.566,99.49,-0.0060047
29.68,317.551,17.565,99.487,-0.0061836
29.73,318.051,17.565,99.484,-0.0060964
29.78,318.552,17.564,99.481,-0.0063256
29.83,319.052,17.564,99.478,-0.0061389
29.88,319.552,17.563,99.475,-0.0063645
29.93,320.052,17.563,99.471,-0.0061847
29.98,320.552,17.562,99.468,-0.0064560
30.03,321.052,17.562,99.465,-0.0064537
30.08,321.552,17.561,99.462,-0.0063187
30.13,322.052,17.56,99.459,-0.0066826
30.18,322.552,17.56,99.455,-0.0064501
30.23,323.052,17.559,99.452,-0.0064947
30.28,323.552,17.559,99.449,-0.0067729
30.33,324.053,17.558,99.445,-0.0065440
30.38,324.553,17.557,99.442,-0.0067766
30.43,325.053,17.557,99.439,-0.0066490
30.48,325.553,17.556,99.435,-0.0069266
30.53,326.053,17.556,99.432,-0.0070145
30.58,326.553,17.555,99.428,-0.0065560
30.63,327.053,17.554,99.425,-0.0076050
30.68,327.553,17.554,99.421,-0.0072776
30.73,328.053,17.553,99.418,-0.0070017
30.78,328.553,17.553,99.414,-0.0070971
30.83,329.053,17.552,99.411,-0.0076007
30.88,329.553,17.551,99.407,-0.0069076
30.93,330.054,17.551,99.404,-0.0074135
30.98,330.554,17.55,99.4,-0.0071886
31.03,331.054,17.549,99.396,-0.0069572
31.08,331.554,17.549,99.393,-0.0073718
31.13,332.054,17.548,99.389,-0.0075092
31.18,332.554,17.547,99.385,-0.0075980
31.23,333.054,17.547,99.381,-0.0076952
31.28,333.554,17.546,99.378,-0.0076077
31.33,334.054,17.545,99.374,-0.0077910
31.38,334.554,17.545,99.37,-0.0076049
31.43,335.054,17.544,99.366,-0.0080128
31.48,335.555,17.543,99.362,-0.0079154
31.53,336.055,17.543,99.358,-0.0080055
31.58,336.555,17.542,99.354,-0.0083745
31.63,337.055,17.541,99.35,-0.0081930
31.68,337.555,17.54,99.346,-0.0080128
31.73,338.055,17.54,99.342,-0.0081960
31.78,338.555,17.539,99.338,-0.0085134
31.83,339.055,17.538,99.333,-0.0087486
31.88,339.555,17.538,99.329,-0.0081044
31.93,340.055,17.537,99.325,-0.0086491
31.98,340.555,17.536,99.32,-0.0084172
32.03,341.056,17.535,99.316,-0.0082418
32.08,341.556,17.534,99.312,-0.0087501
32.13,342.056,17.534,99.307,-0.0093356
32.18,342.556,17.533,99.303,-0.0089744
32.23,343.056,17.532,99.298,-0.0092914
32.28,343.556,17.531,99.294,-0.0093322
32.33,344.056,17.53,99.289,-0.0094254
32.38,344.556,17.53,99.284,-0.0094236
32.43,345.056,17.529,99.28,-0.0100220
32.48,345.556,17.528,99.275,-0.0100603
32.53,346.056,17.527,99.27,-0.0098720
32.58,346.557,17.526,99.265,-0.0098226
32.63,347.057,17.525,99.26,-0.0100604
32.68,347.557,17.524,99.255,-0.0099359
32.73,348.057,17.523,99.25,-0.0102620
32.78,348.557,17.523,99.244,-0.0107182
32.83,349.057,17.522,99.239,-0.0109492
32.88,349.557,17.521,99.234,-0.0109890
32.93,350.057,17.52,99.228,-0.0115342
32.98,350.557,17.519,99.222,-0.0110308
33.03,351.057,17.518,99.217,-0.0116758
33.08,351.557,17.517,99.211,-0.0125069
33.13,352.058,17.516,99.205,-0.0121337
33.18,352.558,17.514,99.199,-0.0122141
33.23,353.058,17.513,99.192,-0.0128498
33.28,353.558,17.512,99.186,-0.0128956
33.33,354.058,17.511,99.179,-0.0135407
33.38,354.558,17.51,99.173,-0.0132662
33.43,355.058,17.509,99.166,-0.0138203
33.48,355.558,17.507,99.159,-0.0142150
33.53,356.058,17.506,99.152,-0.0143578
33.58,356.558,17.505,99.144,-0.0150083
33.63,357.058,17.504,99.137,-0.0151696
33.68,357.558,17.502,99.129,-0.0146654
33.73,358.059,17.501,99.122,-0.0155221
33.78,358.559,17.5,99.114,-0.0157509
33.83,359.059,17.498,99.106,-0.0157967
33.88,359.559,17.497,99.098,-0.0156878
33.93,360.059,17.495,99.09,-0.0166972
33.98,360.559,17.494,99.082,-0.0164010
34.03,361.059,17.492,99.074,-0.0166209
34.08,361.559,17.491,99.065,-0.0177493
34.13,362.059,17.489,99.056,-0.0170694
34.18,362.559,17.488,99.048,-0.0172066
34.23,363.059,17.486,99.039,-0.0183776
34.28,363.56,17.485,99.03,-0.0181777
34.33,364.06,17.483,99.021,-0.0182368
34.38,364.56,17.482,99.012,-0.0182334
34.43,365.06,17.48,99.003,-0.0186984
34.48,365.56,17.478,98.994,-0.0179817
34.53,366.06,17.477,98.984,-0.0185032
34.58,366.56,17.475,98.975,-0.0182435
34.63,367.06,17.473,98.966,-0.0184914
34.68,367.56,17.472,98.957,-0.0188472
34.73,368.06,17.47,98.947,-0.0193257
34.78,368.56,17.468,98.937,-0.0190128
34.83,369.061,17.467,98.928,-0.0192132
34.88,369.561,17.465,98.919,-0.0194348
34.93,370.061,17.463,98.909,-0.0197092
34.98,370.561,17.462,98.899,-0.0194383
35.03,371.061,17.46,98.889,-0.0197730
35.08,371.561,17.458,98.879,-0.0209403
35.13,372.061,17.456,98.869,-0.0200549
35.18,372.561,17.454,98.859,-0.0203025
35.23,373.061,17.453,98.849,-0.0206804
35.28,373.561,17.451,98.838,-0.0207532
35.33,374.061,17.449,98.827,-0.0209707
35.38,374.562,17.447,98.817,-0.0214626
35.43,375.062,17.445,98.806,-0.0213671
35.48,375.562,17.443,98.796,-0.0212601
35.53,376.062,17.441,98.785,-0.0214312
35.58,376.562,17.439,98.774,-0.0218464
35.63,377.062,17.438,98.763,-0.0220952
35.68,377.562,17.436,98.752,-0.0228812
35.73,378.062,17.434,98.74,-0.0232345
35.78,378.562,17.432,98.729,-0.0232175
35.83,379.062,17.429,98.717,-0.0230016
35.88,379.562,17.427,98.705,-0.0237660
35.93,380.063,17.425,98.693,-0.0242598
35.98,380.563,17.423,98.681,-0.0240667
36.03,381.063,17.421,98.669,-0.0247253
36.08,381.563,17.419,98.657,-0.0246337
36.13,382.063,17.417,98.644,-0.0248396
36.18,382.563,17.414,98.632,-0.0256740
36.23,383.063,17.412,98.619,-0.0263303
36.28,383.563,17.41,98.606,-0.0261009
36.33,384.063,17.407,98.593,-0.0263375
36.38,384.563,17.405,98.579,-0.0274932
36.43,385.063,17.403,98.566,-0.0269097
36.48,385.563,17.4,98.552,-0.0269765
36.53,386.064,17.398,98.539,-0.0269048
36.58,386.564,17.396,98.525,-0.0278336
36.63,387.064,17.393,98.511,-0.0271630
36.68,387.564,17.391,98.497,-0.0284995
36.73,388.064,17.388,98.483,-0.0287388
36.78,388.564,17.386,98.468,-0.0285872
36.83,389.064,17.383,98.454,-0.0293362
36.88,389.564,17.38,98.439,-0.0300459
36.93,390.064,17.378,98.424,-0.0301210
36.98,390.564,17.375,98.409,-0.0300642
37.03,391.064,17.372,98.394,-0.0306319
37.08,391.565,17.37,98.379,-0.0306319
37.13,392.065,17.367,98.363,-0.0308150
37.18,392.565,17.364,98.348,-0.0317715
37.23,393.065,17.361,98.332,-0.0327064
37.28,393.565,17.359,98.316,-0.0317308
37.33,394.065,17.356,98.3,-0.0326624
37.38,394.565,17.353,98.283,-0.0330102
37.43,395.065,17.35,98.266,-0.0331320
37.48,395.565,17.347,98.25,-0.0336837
37.53,396.065,17.344,98.233,-0.0348124
37.58,396.565,17.341,98.215,-0.0343093
37.63,397.066,17.338,98.198,-0.0349497
37.68,397.566,17.335,98.18,-0.0358514
37.73,398.066,17.331,98.162,-0.0363221
37.78,398.566,17.328,98.144,-0.0360806
37.83,399.066,17.325,98.126,-0.0365719
37.88,399.566,17.322,98.107,-0.0381402
37.93,400.066,17.318,98.088,-0.0371677
37.98,400.566,17.315,98.069,-0.0387466
38.03,401.066,17.312,98.05,-0.0395940
38.08,401.566,17.308,98.03,-0.0400055
38.13,402.066,17.305,98.01,-0.0405455
38.18,402.567,17.301,97.989,-0.0417200
38.23,403.067,17.297,97.968,-0.0427198
38.28,403.567,17.293,97.947,-0.0425220
38.33,404.067,17.29,97.925,-0.0437970
38.38,404.567,17.286,97.903,-0.0445758
38.43,405.067,17.282,97.881,-0.0447441
38.48,405.567,17.278,97.858,-0.0457991
38.53,406.067,17.274,97.835,-0.0466807
38.58,406.567,17.269,97.811,-0.0475275
38.63,407.067,17.265,97.787,-0.0484329
38.68,407.567,17.261,97.762,-0.0507147
38.73,408.068,17.256,97.737,-0.0506050
38.78,408.568,17.252,97.712,-0.0516499
38.83,409.068,17.247,97.686,-0.0532801
38.88,409.568,17.243,97.659,-0.0542781
38.93,410.068,17.238,97.631,-0.0547161
38.98,410.568,17.233,97.603,-0.0566788
39.03,411.068,17.228,97.573,-0.0607404
39.08,411.568,17.222,97.544,-0.0588208
39.13,412.068,17.217,97.513,-0.0627514
39.18,412.568,17.211,97.479,-0.0720037
39.23,413.068,17.205,97.443,-0.0750000
39.28,413.568,17.197,97.403,-0.0944597
39.33,414.069,17.189,97.355,-0.0973468
39.38,414.569,17.18,97.305,-0.0900366
39.43,415.069,17.173,97.262,-0.0907341
39.48,415.569,17.164,97.214,-0.0958695
39.53,416.069,17.156,97.166,-0.0868657
39.58,416.569,17.148,97.121,-0.0890511
39.63,417.069,17.139,97.073,-0.1001820
39.68,417.569,17.13,97.019,-0.1053020
39.73,418.069,17.121,96.969,-0.1050220
39.78,418.569,17.111,96.916,-0.1102750
39.83,419.069,17.102,96.861,-0.1202030
39.88,419.57,17.092,96.804,-0.1108770
39.93,420.07,17.082,96.749,-0.1187270
39.98,420.57,17.071,96.687,-0.1327660
40.03,421.07,17.06,96.623,-0.1170180
40.08,421.57,17.049,96.563,-0.1228190
40.13,422.07,17.037,96.495,-0.1405050
40.18,422.57,17.024,96.421,-0.1473900
40.23,423.07,17.012,96.354,-0.1277480
40.28,423.57,17,96.283,-0.1535260
40.33,424.07,16.986,96.207,-0.1598440
40.38,424.57,16.973,96.132,-0.1512730
40.43,425.071,16.959,96.055,-0.1642420
40.48,425.571,16.944,95.969,-0.1809000
40.53,426.071,16.928,95.875,-0.1930530
40.58,426.571,16.911,95.778,-0.1964350
40.63,427.071,16.893,95.679,-0.2012810
40.68,427.571,16.876,95.582,-0.1974660
40.73,428.071,16.859,95.484,-0.1916980
40.78,428.571,16.841,95.383,-0.2071130
40.83,429.071,16.822,95.279,-0.2113770
40.88,429.571,16.804,95.173,-0.2160530
40.93,430.071,16.784,95.064,-0.2314160
40.98,430.572,16.764,94.949,-0.2322920
41.03,431.072,16.744,94.837,-0.2323350
41.08,431.572,16.724,94.719,-0.2477110
41.13,432.072,16.702,94.596,-0.2405270
41.18,432.572,16.679,94.469,-0.2593350
41.23,433.072,16.656,94.337,-0.2704090
41.28,433.572,16.632,94.198,-0.2837870
41.33,434.072,16.606,94.053,-0.2876140
41.38,434.572,16.579,93.901,-0.3179210
41.43,435.072,16.55,93.737,-0.3464810
41.48,435.572,16.518,93.557,-0.3652140
41.53,436.073,16.486,93.375,-0.3554320
41.58,436.573,16.455,93.199,-0.3562670
41.63,437.073,16.42,93.001,-0.4529210
41.68,437.573,16.393,92.849,-0.2751960
41.73,438.073,16.367,92.699,-0.3132640
41.78,438.573,16.337,92.531,-0.3504830
41.83,439.073,16.304,92.345,-0.3871680
41.88,439.573,16.268,92.138,-0.4307760
41.93,440.073,16.227,91.908,-0.4706380
41.98,440.573,16.186,91.676,-0.4471970
42.03,441.073,16.146,91.448,-0.4894900
42.08,441.573,16.101,91.194,-0.5465990
42.13,442.074,16.055,90.933,-0.4987110
42.18,442.574,16.01,90.675,-0.5670960
42.23,443.074,15.961,90.399,-0.5417540
42.28,443.574,15.915,90.137,-0.5227060
42.33,444.074,15.865,89.855,-0.5893580
42.38,444.574,15.811,89.548,-0.6369420
42.43,445.074,15.753,89.221,-0.6422020
42.48,445.574,15.695,88.895,-0.6296460
42.53,446.074,15.639,88.575,-0.6972010
42.58,446.574,15.576,88.221,-0.6926200
42.63,447.074,15.509,87.842,-0.7642920
42.68,447.575,15.441,87.456,-0.7742290
42.73,448.075,15.373,87.068,-0.7881650
42.78,448.575,15.304,86.681,-0.7798990
42.83,449.075,15.229,86.257,-0.8793500
42.88,449.575,15.148,85.797,-0.9240600
42.93,450.075,15.071,85.356,-0.9209140
42.98,450.575,14.988,84.89,-1.01563
43.03,451.075,14.899,84.387,-1.01254
43.08,451.575,14.808,83.871,-1.13014
43.13,452.075,14.717,83.353,-1.06144
43.18,452.575,14.618,82.795,-1.13956
43.23,453.076,14.521,82.245,-1.04838
43.28,453.576,14.417,81.654,-1.18998
43.33,454.076,14.312,81.061,-1.20261
43.38,454.576,14.203,80.443,-1.3005
43.43,455.076,14.084,79.77,-1.3375
43.48,455.576,13.967,79.109,-1.32069
43.53,456.076,13.838,78.376,-1.44524
43.58,456.576,13.71,77.653,-1.50688
43.63,457.076,13.577,76.895,-1.50874
43.68,457.576,13.441,76.125,-1.62463
43.73,458.076,13.298,75.316,-1.61213
43.78,458.577,13.154,74.501,-1.71658
43.83,459.077,12.997,73.61,-1.8367
43.88,459.577,12.837,72.704,-1.76408
43.93,460.077,12.679,71.812,-1.78081
43.98,460.577,12.51,70.857,-2.00517
44.03,461.077,12.333,69.854,-1.9794
44.08,461.577,12.153,68.834,-2.1001
44.13,462.077,11.965,67.77,-2.1616
44.18,462.577,11.773,66.677,-2.25533
44.23,463.077,11.572,65.542,-2.2953
44.28,463.577,11.366,64.377,-2.40721
44.33,464.078,11.151,63.16,-2.45531
44.38,464.578,10.932,61.914,-2.58525
44.43,465.078,10.709,60.653,-2.54644
44.48,465.578,10.475,59.331,-2.66587
44.53,466.078,10.241,58.005,-2.67836
44.58,466.578,9.995,56.61,-2.80496
44.63,467.078,9.743,55.182,-2.84339
44.68,467.578,9.491,53.758,-2.88793
44.73,468.078,9.224,52.244,-3.01188
44.78,468.578,8.963,50.764,-2.97627
44.83,469.078,8.685,49.192,-3.04096
44.88,469.578,8.412,47.642,-3.17962
44.93,470.079,8.123,46.006,-3.31057
44.98,470.579,7.826,44.326,-3.30384
45.03,471.079,7.522,42.603,-3.48
45.08,471.579,7.237,40.989,-3.30646
45.13,472.079,6.929,39.245,-3.37157
45.18,472.579,6.633,37.565,-3.30859
45.23,473.079,6.321,35.8,-3.59604
45.28,473.579,5.979,33.865,-3.51556
45.33,474.079,5.69,32.226,-3.61581
45.38,474.579,5.376,30.447,-3.54722
45.43,475.079,5.089,28.823,-3.34759
45.48,475.58,4.799,27.18,-3.15267
45.53,476.08,4.512,25.556,-3.34062
45.58,476.58,4.215,23.871,-3.30882
45.63,477.08,3.922,22.215,-3.56519
45.68,477.58,3.632,20.571,-3.27659
45.73,478.08,3.337,18.902,-3.13935
45.78,478.58,3.064,17.353,-3.25804
45.83,479.08,2.792,15.814,-2.97383
45.88,479.58,2.543,14.402,-2.64688
45.93,480.08,2.304,13.05,-2.6408
45.98,480.58,2.073,11.742,-2.4135
46.03,481.081,1.858,10.521,-2.40305
46.08,481.581,1.655,9.375,-2.34052
46.13,482.081,1.455,8.24,-2.07069
46.18,482.581,1.274,7.217,-1.99869
46.23,483.081,1.106,6.262,-1.7691
46.28,483.581,0.9610000,5.443,-1.60574
46.33,484.081,0.8270000,4.682,-1.42421
46.38,484.581,0.7070000,4.006,-1.26666
46.43,485.081,0.6030000,3.416,-1.10916
46.47,485.581,0.5160000,2.923,-0.9302940
46.52,486.081,0.4410000,2.496,-0.7899910
46.57,486.582,0.3780000,2.142,-0.6209160
46.62,487.082,0.3280000,1.859,-0.4974560
46.67,487.582,0.2890000,1.636,-0.3773520
46.72,488.082,0.2580000,1.464,-0.2894850
46.77,488.582,0.2370000,1.341,-0.2176160
46.82,489.082,0.2200000,1.248,-0.1594970
46.87,489.582,0.2090000,1.185,-0.1002190
46.92,490.082,0.2020000,1.146,-0.0568886
46.97,490.582,0.1980000,1.123,-0.0303874
47.02,491.082,0.1960000,1.108,-0.0313882
47.07,491.582,0.1930000,1.093,-0.0293738
47.12,492.083,0.1910000,1.079,-0.0255982
47.17,492.583,0.1880000,1.067,-0.0218418
47.22,493.083,0.1870000,1.057,-0.0185958
47.27,493.583,0.1850000,1.049,-0.0143015
47.32,494.083,0.1840000,1.042,-0.0121941
47.37,494.583,0.1830000,1.037,-0.0102250
47.43,495.083,0.1820000,1.032,-0.0079805
47.48,495.583,0.1820000,1.029,-0.0066637
47.53,496.083,0.1810000,1.026,-0.0053500
47.58,496.583,0.1810000,1.023,-0.0039681
47.63,497.083,0.1800000,1.022,-0.0035689
47.68,497.583,0.1800000,1.02,-0.0034227
47.73,498.084,0.1800000,1.018,-0.0023931
47.78,498.584,0.1800000,1.017,-0.0022045
47.83,499.084,0.1790000,1.016,-0.0021310
47.88,499.584,0.1790000,1.015,-0.0015346
47.93,500.084,0.1790000,1.015,-0.0012001
47.98,500.584,0.1790000,1.014,-0.0013593
48.03,501.084,0.1790000,1.013,-0.0012061
48.08,501.584,0.1790000,1.013,-0.0005055
48.13,502.084,0.1790000,1.013,-0.0008302
48.18,502.584,0.1790000,1.012,-0.0009093
48.23,503.084,0.1790000,1.012,-0.0004434
48.28,503.585,0.1790000,1.012,0.0003579
48.33,504.085,0.1790000,1.011,-0.0006847
48.37,504.585,0.1790000,1.011,0.0004610
48.42,505.085,0.1790000,1.012,0.0000765
48.47,505.585,0.1790000,1.012,0.0001116
48.52,506.085,0.1790000,1.012,0.0000173
48.58,506.585,0.1790000,1.012,0.0000652
48.63,507.085,0.1790000,1.012,0.0003643
48.68,507.585,0.1790000,1.012,-0.0001140
48.73,508.085,0.1790000,1.012,-0.0001461
48.78,508.585,0.1790000,1.012,-0.0003448
48.83,509.086,0.1790000,1.011,-0.0003359
48.88,509.586,0.1790000,1.011,-0.0004175
48.93,510.086,0.1780000,1.011,-0.0009963
48.98,510.586,0.1780000,1.011,-0.0003300
49.03,511.086,0.1780000,1.01,-0.0002312
49.08,511.586,0.1780000,1.01,-0.0007519
49.13,512.086,0.1780000,1.01,-0.0007333
49.18,512.586,0.1780000,1.01,-0.0001172
49.23,513.086,0.1780000,1.01,-0.0003325
49.28,513.586,0.1780000,1.01,-0.0007932
49.33,514.086,0.1780000,1.009,-0.0001324
49.38,514.587,0.1780000,1.009,-0.0002232
49.43,515.087,0.1780000,1.009,-0.0006324
49.48,515.587,0.1780000,1.009,-0.0004710
49.53,516.087,0.1780000,1.009,-0.0000229
49.58,516.587,0.1780000,1.009,0.0000950
49.63,517.087,0.1780000,1.009,0.0014180
49.68,517.587,0.1780000,1.009,-0.0001507
49.73,518.087,0.1780000,1.009,-0.0007069
49.78,518.587,0.1780000,1.008,-0.0006642
49.83,519.087,0.1780000,1.008,0.0001930
49.88,519.587,0.1780000,1.008,0.0006632
49.93,520.088,0.1780000,1.008,-0.0003309
49.98,520.588,0.1780000,1.008,-0.0004853
50.03,521.088,0.1780000,1.008,-0.0002339
50.08,521.588,0.1780000,1.008,-0.0003437
50.13,522.088,0.1780000,1.008,-0.0009897
50.18,522.588,0.1780000,1.008,-0.0013872
50.23,523.088,0.1780000,1.007,-0.0016076
50.28,523.588,0.1780000,1.006,-0.0009076
50.33,524.088,0.1780000,1.006,-0.0003491
50.38,524.588,0.1780000,1.006,-0.0003389
50.43,525.088,0.1780000,1.005,-0.0007333
50.48,525.588,0.1770000,1.005,-0.0003000
50.53,526.089,0.1780000,1.005,0.0006246
50.57,526.589,0.1770000,1.005,-0.0007570
50.62,527.089,0.1770000,1.004,-0.0009285
50.67,527.589,0.1770000,1.004,-0.0021955
50.72,528.089,0.1770000,1.003,-0.0012167
50.77,528.589,0.1770000,1.003,-0.0002034
50.82,529.089,0.1770000,1.002,0.0000279
50.87,529.589,0.1770000,1.002,-0.0002523
50.92,530.089,0.1770000,1.002,-0.0009471
50.97,530.589,0.1770000,1.002,-0.0001953
51.02,531.089,0.1770000,1.001,-0.0005112
51.07,531.59,0.1770000,1.001,-0.0009720
51.12,532.09,0.1770000,1.001,-0.0010009
51.17,532.59,0.1770000,1,-0.0005065
51.22,533.09,0.1770000,1,-0.0010498
51.27,533.59,0.1760000,0.9990000,-0.0012588
51.33,534.09,0.1760000,0.9990000,-0.0004260
51.38,534.59,0.1760000,0.9990000,-0.0006474
51.43,535.09,0.1760000,0.9980000,-0.0003410
51.48,535.59,0.1760000,0.9980000,-0.0005380
51.53,536.09,0.1760000,0.9970000,-0.0009339
51.58,536.59,0.1760000,0.9970000,-0.0015482
51.63,537.091,0.1760000,0.9960000,-0.0006264
51.68,537.591,0.1760000,0.9960000,-0.0003760
51.73,538.091,0.1760000,0.9960000,-0.0010159
51.78,538.591,0.1760000,0.9950000,-0.0009669
51.83,539.091,0.1760000,0.9950000,-0.0006084
51.88,539.591,0.1760000,0.9950000,-0.0008126
51.92,540.091,0.1750000,0.9940000,-0.0018333
51.97,540.591,0.1750000,0.9930000,-0.0014589
52.03,541.091,0.1750000,0.9920000,-0.0014466
52.08,541.591,0.1750000,0.9920000,-0.0014881
52.12,542.091,0.1750000,0.9910000,-0.0006414
52.17,542.592,0.1750000,0.9910000,-0.0006689
52.22,543.092,0.1750000,0.9910000,-0.0007956
52.27,543.592,0.1750000,0.9900000,-0.0006865
52.32,544.092,0.1750000,0.9900000,-0.0008464
52.37,544.592,0.1750000,0.9890000,-0.0009944
52.42,545.092,0.1750000,0.9890000,-0.0009186
52.47,545.592,0.1750000,0.9880000,-0.0010155
52.52,546.092,0.1740000,0.9880000,-0.0011232
52.57,546.592,0.1740000,0.9870000,-0.0008454
52.62,547.092,0.1740000,0.9870000,-0.0014193
52.67,547.592,0.1740000,0.9860000,-0.0015829
52.72,548.093,0.1740000,0.9850000,-0.0016458
52.77,548.593,0.1740000,0.9840000,-0.0013669
52.82,549.093,0.1740000,0.9840000,-0.0018324
52.87,549.593,0.1740000,0.9830000,-0.0012863
52.92,550.093,0.1730000,0.9820000,-0.0011626
52.97,550.593,0.1730000,0.9820000,-0.0010119
53.02,551.093,0.1730000,0.9810000,-0.0009134
53.07,551.593,0.1730000,0.9810000,-0.0008734
53.12,552.093,0.1730000,0.9800000,-0.0007843
53.17,552.593,0.1730000,0.9800000,-0.0007931
53.22,553.093,0.1730000,0.9790000,-0.0005667
53.27,553.593,0.1730000,0.9790000,-0.0008136
53.32,554.094,0.1730000,0.9790000,-0.0005952
53.37,554.594,0.1730000,0.9780000,-0.0004271
53.42,555.094,0.1730000,0.9780000,-0.0005010
53.47,555.594,0.1730000,0.9780000,-0.0005024
53.52,556.094,0.1730000,0.9780000,-0.0004071
53.57,556.594,0.1730000,0.9780000,-0.0003921
53.62,557.094,0.1730000,0.9770000,0.0000518
53.67,557.594,0.1730000,0.9770000,-0.0002562
53.72,558.094,0.1730000,0.9770000,-0.0002162
53.77,558.594,0.1730000,0.9770000,-0.0000533
53.82,559.094,0.1730000,0.9770000,-0.0003427
53.87,559.595,0.1730000,0.9770000,-0.0001214
53.92,560.095,0.1720000,0.9770000,-0.0002563
53.97,560.595,0.1720000,0.9770000,-0.0007245
54.02,561.095,0.1720000,0.9770000,-0.0010885
54.07,561.595,0.1720000,0.9760000,-0.0001603
54.12,562.095,0.1720000,0.9760000,-0.0001601
54.17,562.595,0.1720000,0.9760000,-0.0005630
54.22,563.095,0.1720000,0.9750000,-0.0005913
54.27,563.595,0.1720000,0.9750000,0.0000611
54.32,564.095,0.1720000,0.9750000,-0.0009326
54.37,564.595,0.1720000,0.9750000,-0.0003152
54.42,565.096,0.1720000,0.9750000,-0.0002136
54.47,565.596,0.1720000,0.9750000,-0.0008579
54.52,566.096,0.1720000,0.9740000,-0.0000578
54.57,566.596,0.1720000,0.9740000,0.0001243
54.62,567.096,0.1720000,0.9740000,-0.0004092
54.67,567.596,0.1720000,0.9740000,-0.0009101
54.72,568.096,0.1720000,0.9740000,-0.0004359
54.77,568.596,0.1720000,0.9740000,-0.0001421
54.82,569.096,0.1720000,0.9730000,-0.0003102
54.87,569.596,0.1720000,0.9730000,-0.0005498
54.92,570.096,0.1720000,0.9730000,-0.0006266
54.97,570.597,0.1720000,0.9730000,-0.0005727
55.02,571.097,0.1720000,0.9720000,-0.0009901
55.07,571.597,0.1720000,0.9720000,-0.0004810
55.12,572.097,0.1720000,0.9720000,-0.0009065
55.17,572.597,0.1720000,0.9720000,-0.0008209
55.22,573.097,0.1710000,0.9710000,-0.0005462
55.27,573.597,0.1710000,0.9710000,-0.0004867
55.32,574.097,0.1710000,0.9710000,-0.0004721
55.37,574.597,0.1710000,0.9710000,-0.0004492
55.42,575.097,0.1710000,0.9700000,-0.0004902
55.47,575.597,0.1710000,0.9700000,-0.0004482
55.52,576.098,0.1710000,0.9700000,-0.0011107
55.57,576.598,0.1710000,0.9690000,-0.0009209
55.62,577.098,0.1710000,0.9690000,-0.0009393
55.67,577.598,0.1710000,0.9680000,-0.0008526
55.72,578.098,0.1710000,0.9680000,-0.0008397
55.77,578.598,0.1710000,0.9680000,-0.0011214
55.82,579.098,0.1710000,0.9670000,-0.0008226
55.87,579.598,0.1710000,0.9670000,-0.0008116
55.92,580.098,0.1710000,0.9660000,-0.0009508
55.97,580.598,0.1700000,0.9660000,-0.0008029
56.02,581.098,0.1700000,0.9650000,-0.0012094
56.07,581.598,0.1700000,0.9650000,-0.0010309
56.12,582.099,0.1700000,0.9640000,-0.0012520
56.17,582.599,0.1700000,0.9630000,-0.0013636
56.22,583.099,0.1700000,0.9630000,-0.0011322
56.27,583.599,0.1700000,0.9620000,-0.0012161
56.32,584.099,0.1700000,0.9620000,-0.0009712
56.37,584.599,0.1700000,0.9610000,-0.0008161
56.42,585.099,0.1700000,0.9610000,-0.0009712
56.47,585.599,0.1700000,0.9600000,-0.0015503
56.52,586.099,0.1690000,0.9600000,-0.0010330
56.57,586.599,0.1690000,0.9590000,-0.0012260
56.62,587.099,0.1690000,0.9580000,-0.0014511
56.67,587.6,0.1690000,0.9580000,-0.0007440
56.72,588.1,0.1690000,0.9570000,-0.0010673
56.77,588.6,0.1690000,0.9570000,-0.0011769
56.82,589.1,0.1690000,0.9560000,-0.0010212
56.87,589.6,0.1690000,0.9560000,-0.0006772
56.91,590,0.1690000,0.9550000,-0.0008924