File: R/rHDPE_App/app/www/Output/TGA/Condensed_Data/Resin21_1__1.csv
0.9700000,30,11.383,100.037,0.0062378
1.03,30.5001,11.384,100.039,0.0048919
1.09,31.0002,11.384,100.041,0.0036770
1.15,31.5003,11.384,100.043,0.0039442
1.21,32.0004,11.384,100.044,0.0021590
1.27,32.5004,11.384,100.046,0.0038526
1.33,33.0005,11.384,100.047,0.0026319
1.38,33.5006,11.385,100.048,0.0019448
1.44,34.0007,11.385,100.049,0.0022343
1.49,34.5008,11.385,100.051,0.0015136
1.55,35.0009,11.385,100.052,0.0024079
1.6,35.501,11.385,100.053,0.0026917
1.66,36.0011,11.385,100.054,0.0015882
1.71,36.5012,11.385,100.055,0.0022741
1.77,37.0013,11.385,100.056,0.0010343
1.82,37.5013,11.386,100.057,0.0027982
1.87,38.0014,11.386,100.058,0.0024949
1.93,38.5015,11.386,100.059,0.0021487
1.98,39.0016,11.386,100.06,0.0023883
2.03,39.5017,11.386,100.061,0.0017045
2.08,40.0018,11.386,100.062,0.0013120
2.14,40.5019,11.386,100.062,0.0019394
2.19,41.002,11.386,100.063,0.0022739
2.24,41.5021,11.386,100.064,0.0004829
2.3,42.0021,11.386,100.065,0.0017851
2.35,42.5022,11.387,100.066,0.0019274
2.4,43.0023,11.387,100.067,0.0019235
2.45,43.5024,11.387,100.068,0.0007199
2.51,44.0025,11.387,100.068,0.0010063
2.56,44.5026,11.387,100.069,0.0019137
2.61,45.0027,11.387,100.07,0.0015760
2.66,45.5028,11.387,100.071,0.0012405
2.71,46.0029,11.387,100.072,0.0018099
2.77,46.5029,11.387,100.073,0.0017595
2.82,47.003,11.387,100.074,0.0016626
2.87,47.5031,11.388,100.075,0.0012810
2.92,48.0032,11.388,100.075,0.0017062
2.98,48.5033,11.388,100.076,0.0017999
3.03,49.0034,11.388,100.077,0.0016083
3.08,49.5035,11.388,100.078,0.0017480
3.13,50.0036,11.388,100.079,0.0015575
3.18,50.5037,11.388,100.08,0.0018850
3.23,51.0038,11.388,100.081,0.0019295
3.28,51.5038,11.388,100.081,0.0019732
3.34,52.0039,11.388,100.082,0.0015490
3.39,52.504,11.389,100.083,0.0014062
3.44,53.0041,11.389,100.084,0.0012648
3.49,53.5042,11.389,100.085,0.0014984
3.54,54.0043,11.389,100.085,0.0016845
3.59,54.5044,11.389,100.086,0.0011223
3.64,55.0045,11.389,100.087,0.0012622
3.69,55.5046,11.389,100.088,0.0016345
3.74,56.0046,11.389,100.089,0.0018190
3.79,56.5047,11.389,100.09,0.0021910
3.84,57.0048,11.389,100.091,0.0020957
3.9,57.5049,11.39,100.092,0.0023261
3.95,58.005,11.39,100.093,0.0019984
4,58.5051,11.39,100.093,0.0013932
4.05,59.0052,11.39,100.094,0.0015307
4.1,59.5053,11.39,100.095,0.0015300
4.15,60.0054,11.39,100.095,0.0013902
4.2,60.5054,11.39,100.096,0.0015749
4.25,61.0055,11.39,100.097,0.0016200
4.3,61.5056,11.39,100.098,0.0011571
4.35,62.0057,11.39,100.098,0.0009717
4.4,62.5058,11.39,100.099,0.0012032
4.45,63.0059,11.39,100.099,0.0012488
4.5,63.506,11.39,100.1,0.0018949
4.55,64.0061,11.391,100.101,0.0015249
4.6,64.5062,11.391,100.102,0.0012940
4.65,65.0063,11.391,100.102,0.0012938
4.7,65.5063,11.391,100.103,0.0011079
4.76,66.0064,11.391,100.103,0.0011071
4.81,66.5065,11.391,100.104,0.0013833
4.86,67.0066,11.391,100.105,0.0010141
4.91,67.5067,11.391,100.105,0.0008290
4.96,68.0068,11.391,100.106,0.0016106
5.01,68.5069,11.391,100.107,0.0014714
5.06,69.007,11.391,100.108,0.0014714
5.11,69.5071,11.391,100.108,0.0017466
5.16,70.0071,11.391,100.109,0.0010570
5.21,70.5072,11.392,100.11,0.0014245
5.26,71.0073,11.392,100.11,0.0011483
5.31,71.5074,11.392,100.111,0.0013776
5.36,72.0075,11.392,100.111,0.0016994
5.41,72.5076,11.392,100.112,0.0009180
5.46,73.0077,11.392,100.113,0.0013313
5.51,73.5078,11.392,100.113,0.0013772
5.56,74.0079,11.392,100.114,0.0010549
5.61,74.5079,11.392,100.114,0.0009172
5.66,75.008,11.392,100.115,0.0007794
5.71,75.5081,11.392,100.115,0.0011000
5.76,76.0082,11.392,100.115,0.0009621
5.81,76.5083,11.392,100.116,0.0009162
5.86,77.0084,11.392,100.116,0.0013280
5.91,77.5085,11.392,100.117,0.0010073
5.96,78.0086,11.392,100.117,0.0012816
6.01,78.5087,11.392,100.118,0.0008238
6.06,79.0088,11.393,100.118,0.0008240
6.11,79.5088,11.393,100.119,0.0009153
6.16,80.0089,11.393,100.119,0.0007325
6.21,80.509,11.393,100.12,0.0007781
6.26,81.0091,11.393,100.12,0.0008695
6.31,81.5092,11.393,100.12,0.0004119
6.36,82.0093,11.393,100.121,0.0005492
6.41,82.5094,11.393,100.121,0.0010527
6.46,83.0095,11.393,100.121,0.0006410
6.51,83.5096,11.393,100.122,0.0006413
6.56,84.0096,11.393,100.122,0.0004123
6.61,84.5097,11.393,100.123,0.0005496
6.66,85.0098,11.393,100.123,0.0002291
6.71,85.5099,11.393,100.123,0.0007308
6.76,86.01,11.393,100.124,0.0006842
6.81,86.5101,11.393,100.124,0.0005476
6.86,87.0102,11.393,100.125,0.0004112
6.91,87.5103,11.393,100.125,0.0005489
6.96,88.0104,11.393,100.125,0.0009618
7.01,88.5104,11.393,100.125,0.0005501
7.06,89.0105,11.393,100.126,0.0005043
7.11,89.5106,11.393,100.126,0.0008255
7.16,90.0107,11.393,100.126,0.0007796
7.21,90.5108,11.393,100.127,0.0004126
7.26,91.0109,11.394,100.127,0.0009621
7.31,91.511,11.394,100.127,0.0008246
7.36,92.0111,11.394,100.127,0.0004578
7.41,92.5112,11.394,100.128,0.0004120
7.46,93.0113,11.394,100.128,0.0006861
7.51,93.5113,11.394,100.128,0.0004118
7.56,94.0114,11.394,100.128,0.0000914
7.61,94.5115,11.394,100.129,0.0001829
7.66,95.0116,11.394,100.129,0.0000457
7.71,95.5117,11.394,100.129,-0.0002286
7.76,96.0118,11.394,100.129,0.0005030
7.81,96.5119,11.394,100.129,0.0000457
7.86,97.012,11.394,100.129,-0.0001829
7.91,97.5121,11.394,100.129,-0.0000914
7.96,98.0121,11.394,100.13,0.0003199
8.01,98.5122,11.394,100.13,0.0005941
8.06,99.0123,11.394,100.13,0.0002286
8.11,99.5124,11.394,100.13,0.0003657
8.16,100.013,11.394,100.13,0.0001829
8.21,100.513,11.394,100.13,0.0000000
8.26,101.013,11.394,100.13,0.0006401
8.31,101.513,11.394,100.13,0.0003200
8.36,102.013,11.394,100.13,0.0000457
8.41,102.513,11.394,100.131,0.0002743
8.46,103.013,11.394,100.131,0.0002743
8.51,103.513,11.394,100.131,0.0005488
8.56,104.013,11.394,100.131,0.0000457
8.61,104.513,11.394,100.131,-0.0000915
8.66,105.013,11.394,100.131,0.0001832
8.71,105.513,11.394,100.131,0.0004580
8.76,106.014,11.394,100.131,0.0001373
8.81,106.514,11.394,100.131,0.0000000
8.86,107.014,11.394,100.131,0.0001374
8.91,107.514,11.394,100.131,0.0003205
8.96,108.014,11.394,100.131,0.0005038
9.01,108.514,11.394,100.131,-0.0001832
9.06,109.014,11.394,100.131,0.0000000
9.11,109.514,11.394,100.131,-0.0000916
9.16,110.014,11.394,100.131,-0.0001374
9.21,110.514,11.394,100.131,-0.0003662
9.26,111.014,11.394,100.131,0.0003204
9.31,111.515,11.394,100.131,0.0002289
9.36,112.015,11.394,100.131,-0.0004121
9.41,112.515,11.394,100.131,-0.0002748
9.46,113.015,11.394,100.131,-0.0002289
9.51,113.515,11.394,100.131,-0.0003663
9.56,114.015,11.394,100.131,-0.0002290
9.61,114.515,11.394,100.131,-0.0000458
9.66,115.015,11.394,100.131,0.0001374
9.71,115.515,11.394,100.131,0.0002748
9.76,116.015,11.394,100.131,0.0002290
9.81,116.515,11.394,100.131,-0.0000458
9.86,117.016,11.394,100.131,0.0005499
9.91,117.516,11.394,100.131,0.0002291
9.96,118.016,11.394,100.131,-0.0000917
10.01,118.516,11.394,100.131,0.0000000
10.06,119.016,11.394,100.131,-0.0002752
10.11,119.516,11.394,100.131,-0.0000917
10.16,120.016,11.394,100.131,0.0000458
10.21,120.516,11.394,100.131,0.0000459
10.26,121.016,11.394,100.131,0.0001833
10.31,121.516,11.394,100.131,0.0004128
10.36,122.016,11.394,100.131,0.0001376
10.41,122.517,11.394,100.131,0.0000918
10.46,123.017,11.394,100.131,-0.0001835
10.51,123.517,11.394,100.131,-0.0001377
10.56,124.017,11.394,100.131,0.0000917
10.61,124.517,11.394,100.131,-0.0002294
10.66,125.017,11.394,100.131,0.0000000
10.71,125.517,11.394,100.131,0.0000459
10.76,126.017,11.394,100.131,-0.0000918
10.81,126.517,11.394,100.131,0.0001377
10.86,127.017,11.394,100.131,0.0000000
10.91,127.517,11.394,100.131,-0.0000459
10.96,128.018,11.394,100.132,-0.0001377
11.01,128.518,11.394,100.132,0.0002295
11.06,129.018,11.394,100.132,0.0000000
11.11,129.518,11.394,100.132,0.0000917
11.16,130.018,11.394,100.132,-0.0002292
11.21,130.518,11.394,100.132,-0.0003208
11.26,131.018,11.394,100.132,-0.0002291
11.31,131.518,11.394,100.131,-0.0001832
11.36,132.018,11.394,100.131,-0.0004108
11.41,132.518,11.394,100.131,-0.0004559
11.46,133.018,11.394,100.131,-0.0005469
11.51,133.518,11.394,100.13,-0.0006835
11.56,134.019,11.394,100.13,-0.0012299
11.61,134.519,11.394,100.129,-0.0017306
11.66,135.019,11.394,100.128,-0.0021838
11.71,135.519,11.394,100.127,-0.0025005
11.76,136.019,11.393,100.125,-0.0030413
11.81,136.519,11.393,100.124,-0.0026757
11.86,137.019,11.393,100.123,-0.0029004
11.91,137.519,11.393,100.121,-0.0026287
11.96,138.019,11.393,100.12,-0.0029025
12.01,138.519,11.393,100.119,-0.0029545
12.06,139.019,11.392,100.117,-0.0024585
12.11,139.52,11.392,100.116,-0.0025928
12.16,140.02,11.392,100.115,-0.0027788
12.21,140.52,11.392,100.113,-0.0028303
12.26,141.02,11.392,100.112,-0.0018278
12.31,141.52,11.392,100.111,-0.0022429
12.36,142.02,11.392,100.11,-0.0018807
12.41,142.52,11.392,100.109,-0.0022957
12.46,143.02,11.391,100.108,-0.0017004
12.51,143.52,11.391,100.107,-0.0019768
12.56,144.02,11.391,100.106,-0.0009655
12.61,144.52,11.391,100.106,-0.0017924
12.66,145.021,11.391,100.105,-0.0018842
12.71,145.521,11.391,100.104,-0.0019302
12.76,146.021,11.391,100.103,-0.0014240
12.81,146.521,11.391,100.102,-0.0016996
12.86,147.021,11.391,100.101,-0.0017455
12.91,147.521,11.39,100.1,-0.0017916
12.96,148.021,11.39,100.099,-0.0016534
13.01,148.521,11.39,100.099,-0.0015158
13.06,149.021,11.39,100.098,-0.0015159
13.11,149.521,11.39,100.097,-0.0010565
13.16,150.021,11.39,100.096,-0.0016992
13.21,150.522,11.39,100.096,-0.0016988
13.26,151.022,11.39,100.095,-0.0013802
13.31,151.522,11.39,100.094,-0.0018825
13.36,152.022,11.39,100.094,-0.0015582
13.41,152.522,11.39,100.093,-0.0020193
13.46,153.022,11.39,100.092,-0.0020638
13.51,153.522,11.389,100.091,-0.0021097
13.56,154.022,11.389,100.09,-0.0020181
13.61,154.522,11.389,100.089,-0.0022471
13.66,155.022,11.389,100.088,-0.0027516
13.71,155.522,11.389,100.087,-0.0020633
13.76,156.023,11.389,100.086,-0.0018797
13.81,156.523,11.389,100.085,-0.0019716
13.86,157.023,11.389,100.084,-0.0018790
13.91,157.523,11.389,100.083,-0.0020623
13.96,158.023,11.388,100.082,-0.0015124
14.01,158.523,11.388,100.081,-0.0020617
14.06,159.023,11.388,100.08,-0.0020631
14.11,159.523,11.388,100.08,-0.0020629
14.16,160.023,11.388,100.079,-0.0019248
14.21,160.523,11.388,100.078,-0.0021087
14.26,161.023,11.388,100.077,-0.0020627
14.31,161.523,11.388,100.076,-0.0021087
14.36,162.024,11.388,100.075,-0.0022908
14.41,162.524,11.388,100.074,-0.0020614
14.46,163.024,11.387,100.073,-0.0021078
14.51,163.524,11.387,100.072,-0.0022002
14.56,164.024,11.387,100.071,-0.0024294
14.61,164.524,11.387,100.07,-0.0024283
14.66,165.024,11.387,100.069,-0.0020156
14.71,165.524,11.387,100.068,-0.0022908
14.76,166.024,11.387,100.067,-0.0024741
14.81,166.524,11.387,100.066,-0.0023827
14.86,167.024,11.386,100.065,-0.0025655
14.91,167.525,11.386,100.064,-0.0021988
14.96,168.025,11.386,100.063,-0.0022446
15.01,168.525,11.386,100.062,-0.0022900
15.06,169.025,11.386,100.061,-0.0027483
15.11,169.525,11.386,100.059,-0.0020614
15.16,170.025,11.386,100.058,-0.0021072
15.21,170.525,11.386,100.057,-0.0022452
15.26,171.025,11.385,100.056,-0.0021540
15.31,171.525,11.385,100.055,-0.0022915
15.36,172.025,11.385,100.054,-0.0024296
15.41,172.525,11.385,100.053,-0.0027498
15.46,173.026,11.385,100.052,-0.0027498
15.51,173.526,11.385,100.05,-0.0029336
15.56,174.026,11.385,100.049,-0.0029326
15.61,174.526,11.385,100.048,-0.0027047
15.67,175.026,11.384,100.047,-0.0027039
15.72,175.526,11.384,100.045,-0.0030711
15.77,176.026,11.384,100.044,-0.0025211
15.82,176.526,11.384,100.043,-0.0024748
15.87,177.026,11.384,100.042,-0.0024753
15.92,177.526,11.384,100.04,-0.0025665
15.97,178.026,11.384,100.039,-0.0024285
16.02,178.527,11.383,100.038,-0.0025660
16.07,179.027,11.383,100.037,-0.0026104
16.12,179.527,11.383,100.036,-0.0026106
16.17,180.027,11.383,100.035,-0.0026108
16.22,180.527,11.383,100.033,-0.0022904
16.27,181.027,11.383,100.032,-0.0027948
16.32,181.527,11.383,100.031,-0.0025187
16.37,182.027,11.382,100.03,-0.0026561
16.42,182.527,11.382,100.028,-0.0022911
16.47,183.027,11.382,100.027,-0.0017868
16.52,183.527,11.382,100.026,-0.0027490
16.57,184.028,11.382,100.025,-0.0021998
16.62,184.528,11.382,100.024,-0.0026118
16.67,185.028,11.382,100.022,-0.0019248
16.72,185.528,11.381,100.021,-0.0029325
16.77,186.028,11.381,100.02,-0.0024743
16.82,186.528,11.381,100.018,-0.0025657
16.87,187.028,11.381,100.017,-0.0024283
16.92,187.528,11.381,100.016,-0.0022904
16.97,188.028,11.381,100.015,-0.0025195
17.02,188.528,11.381,100.013,-0.0023352
17.07,189.028,11.38,100.012,-0.0020620
17.12,189.528,11.38,100.011,-0.0023831
17.17,190.029,11.38,100.009,-0.0030253
17.22,190.529,11.38,100.008,-0.0027039
17.27,191.029,11.38,100.007,-0.0023362
17.32,191.529,11.38,100.005,-0.0023360
17.37,192.029,11.38,100.004,-0.0025199
17.42,192.529,11.379,100.003,-0.0027490
17.47,193.029,11.379,100.001,-0.0027951
17.52,193.529,11.379,100,-0.0029331
17.57,194.029,11.379,99.999,-0.0025206
17.62,194.529,11.379,99.997,-0.0029328
17.67,195.029,11.379,99.996,-0.0029789
17.72,195.53,11.378,99.995,-0.0028878
17.77,196.03,11.378,99.993,-0.0025665
17.82,196.53,11.378,99.992,-0.0027964
17.87,197.03,11.378,99.991,-0.0031178
17.92,197.53,11.378,99.989,-0.0028440
17.97,198.03,11.378,99.988,-0.0030742
18.02,198.53,11.378,99.986,-0.0029371
18.07,199.03,11.377,99.985,-0.0028435
18.12,199.53,11.377,99.984,-0.0027057
18.17,200.03,11.377,99.982,-0.0026574
18.22,200.53,11.377,99.981,-0.0031613
18.27,201.031,11.377,99.979,-0.0029323
18.32,201.531,11.377,99.978,-0.0030663
18.37,202.031,11.376,99.977,-0.0027460
18.42,202.531,11.376,99.975,-0.0029754
18.47,203.031,11.376,99.974,-0.0027002
18.52,203.531,11.376,99.972,-0.0030215
18.57,204.031,11.376,99.971,-0.0028827
18.62,204.531,11.376,99.969,-0.0033858
18.67,205.031,11.375,99.968,-0.0033851
18.72,205.531,11.375,99.966,-0.0030661
18.77,206.031,11.375,99.965,-0.0027938
18.82,206.532,11.375,99.964,-0.0026581
18.87,207.032,11.375,99.962,-0.0028409
18.92,207.532,11.375,99.961,-0.0031622
18.97,208.032,11.374,99.959,-0.0032985
19.02,208.532,11.374,99.958,-0.0031613
19.07,209.032,11.374,99.956,-0.0031622
19.12,209.532,11.374,99.955,-0.0031164
19.17,210.032,11.374,99.953,-0.0033012
19.22,210.532,11.374,99.952,-0.0031631
19.27,211.032,11.373,99.95,-0.0032548
19.32,211.532,11.373,99.949,-0.0031622
19.37,212.033,11.373,99.947,-0.0028422
19.42,212.533,11.373,99.946,-0.0030720
19.47,213.033,11.373,99.944,-0.0030248
19.52,213.533,11.373,99.943,-0.0032081
19.57,214.033,11.372,99.942,-0.0030703
19.62,214.533,11.372,99.94,-0.0032982
19.67,215.033,11.372,99.938,-0.0031144
19.72,215.533,11.372,99.937,-0.0035256
19.77,216.033,11.372,99.935,-0.0032051
19.82,216.533,11.372,99.934,-0.0031130
19.87,217.033,11.371,99.932,-0.0030678
19.92,217.533,11.371,99.931,-0.0033867
19.97,218.034,11.371,99.929,-0.0025641
20.02,218.534,11.371,99.928,-0.0031602
20.07,219.034,11.371,99.926,-0.0028856
20.12,219.534,11.371,99.925,-0.0031141
20.17,220.034,11.37,99.923,-0.0029317
20.22,220.534,11.37,99.922,-0.0028399
20.27,221.034,11.37,99.92,-0.0032060
20.32,221.534,11.37,99.919,-0.0032519
20.37,222.034,11.37,99.917,-0.0032057
20.42,222.534,11.369,99.916,-0.0029317
20.47,223.034,11.369,99.914,-0.0031613
20.52,223.535,11.369,99.913,-0.0026581
20.57,224.035,11.369,99.911,-0.0030248
20.62,224.535,11.369,99.91,-0.0030256
20.67,225.035,11.369,99.908,-0.0031622
20.72,225.535,11.368,99.907,-0.0028873
20.77,226.035,11.368,99.905,-0.0025669
20.82,226.535,11.368,99.904,-0.0029339
20.87,227.035,11.368,99.902,-0.0029331
20.92,227.535,11.368,99.901,-0.0031164
20.97,228.035,11.368,99.899,-0.0032545
21.02,228.535,11.367,99.897,-0.0032560
21.07,229.036,11.367,99.895,-0.0031646
21.12,229.536,11.367,99.894,-0.0035747
21.17,230.036,11.367,99.892,-0.0033936
21.22,230.536,11.367,99.891,-0.0027503
21.27,231.036,11.366,99.889,-0.0032524
21.32,231.536,11.366,99.887,-0.0031150
21.37,232.036,11.366,99.886,-0.0033416
21.42,232.536,11.366,99.884,-0.0032961
21.47,233.036,11.366,99.883,-0.0027930
21.52,233.536,11.366,99.881,-0.0032961
21.57,234.036,11.365,99.88,-0.0033901
21.62,234.537,11.365,99.878,-0.0030220
21.67,235.037,11.365,99.877,-0.0036182
21.72,235.537,11.365,99.875,-0.0031610
21.77,236.037,11.365,99.873,-0.0034356
21.82,236.537,11.364,99.872,-0.0037574
21.87,237.037,11.364,99.87,-0.0032991
21.92,237.537,11.364,99.869,-0.0032524
21.97,238.037,11.364,99.867,-0.0032066
22.02,238.537,11.364,99.865,-0.0032072
22.07,239.037,11.364,99.864,-0.0031130
22.12,239.537,11.363,99.862,-0.0027488
22.17,240.038,11.363,99.861,-0.0033004
22.22,240.538,11.363,99.859,-0.0033945
22.27,241.038,11.363,99.858,-0.0031184
22.32,241.538,11.363,99.856,-0.0031184
22.37,242.038,11.363,99.855,-0.0028899
22.42,242.538,11.362,99.853,-0.0034397
22.47,243.038,11.362,99.852,-0.0029352
22.52,243.538,11.362,99.85,-0.0032116
22.57,244.038,11.362,99.849,-0.0033037
22.62,244.538,11.362,99.847,-0.0033477
22.67,245.038,11.361,99.845,-0.0034397
22.72,245.538,11.361,99.844,-0.0031628
22.77,246.039,11.361,99.842,-0.0035737
22.82,246.539,11.361,99.841,-0.0036617
22.87,247.039,11.361,99.839,-0.0035714
22.92,247.539,11.361,99.837,-0.0038007
22.97,248.039,11.36,99.836,-0.0038902
23.02,248.539,11.36,99.834,-0.0037543
23.07,249.039,11.36,99.832,-0.0034350
23.12,249.539,11.36,99.831,-0.0036189
23.17,250.039,11.36,99.829,-0.0035272
23.22,250.539,11.359,99.827,-0.0035731
23.27,251.039,11.359,99.826,-0.0033905
23.32,251.54,11.359,99.824,-0.0031155
23.37,252.04,11.359,99.823,-0.0032997
23.42,252.54,11.359,99.821,-0.0035289
23.47,253.04,11.359,99.819,-0.0034837
23.52,253.54,11.358,99.818,-0.0034372
23.57,254.04,11.358,99.816,-0.0031620
23.62,254.54,11.358,99.814,-0.0031614
23.67,255.04,11.358,99.813,-0.0032530
23.72,255.54,11.358,99.811,-0.0032533
23.77,256.04,11.357,99.809,-0.0032979
23.82,256.54,11.357,99.808,-0.0031593
23.87,257.041,11.357,99.806,-0.0032509
23.92,257.541,11.357,99.804,-0.0031136
23.97,258.041,11.357,99.803,-0.0033425
24.02,258.541,11.356,99.801,-0.0032051
24.07,259.041,11.356,99.8,-0.0031593
24.12,259.541,11.356,99.798,-0.0031611
24.17,260.041,11.356,99.796,-0.0034372
24.22,260.541,11.356,99.795,-0.0032526
24.27,261.041,11.356,99.793,-0.0031610
24.32,261.541,11.355,99.791,-0.0031136
24.37,262.041,11.355,99.79,-0.0034360
24.42,262.542,11.355,99.788,-0.0034818
24.47,263.042,11.355,99.786,-0.0033437
24.52,263.542,11.355,99.785,-0.0032992
24.57,264.042,11.354,99.783,-0.0034365
24.62,264.542,11.354,99.781,-0.0035276
24.68,265.042,11.354,99.779,-0.0034823
24.73,265.542,11.354,99.778,-0.0033443
24.78,266.042,11.354,99.776,-0.0033883
24.83,266.542,11.353,99.774,-0.0028388
24.88,267.042,11.353,99.772,-0.0033895
24.93,267.542,11.353,99.771,-0.0032051
24.98,268.043,11.353,99.769,-0.0034341
25.03,268.543,11.353,99.767,-0.0035714
25.08,269.043,11.352,99.765,-0.0032955
25.13,269.543,11.352,99.764,-0.0032948
25.18,270.043,11.352,99.762,-0.0032028
25.23,270.543,11.352,99.76,-0.0034341
25.28,271.043,11.352,99.758,-0.0034341
25.33,271.543,11.351,99.757,-0.0032527
25.38,272.043,11.351,99.755,-0.0032522
25.43,272.543,11.351,99.753,-0.0032533
25.48,273.043,11.351,99.751,-0.0027941
25.53,273.543,11.351,99.75,-0.0033907
25.58,274.044,11.35,99.748,-0.0034830
25.63,274.544,11.35,99.746,-0.0035747
25.68,275.044,11.35,99.744,-0.0034830
25.73,275.544,11.35,99.743,-0.0036663
25.78,276.044,11.35,99.741,-0.0036172
25.83,276.544,11.349,99.739,-0.0035289
25.88,277.044,11.349,99.737,-0.0035761
25.93,277.544,11.349,99.736,-0.0033902
25.98,278.044,11.349,99.734,-0.0034353
26.03,278.544,11.349,99.732,-0.0030231
26.08,279.044,11.348,99.73,-0.0034818
26.13,279.545,11.348,99.728,-0.0038933
26.18,280.045,11.348,99.726,-0.0036630
26.23,280.545,11.348,99.724,-0.0036185
26.28,281.045,11.348,99.722,-0.0038004
26.33,281.545,11.347,99.721,-0.0039385
26.38,282.045,11.347,99.719,-0.0035269
26.43,282.545,11.347,99.717,-0.0036650
26.48,283.045,11.347,99.715,-0.0034830
26.53,283.545,11.346,99.713,-0.0035760
26.58,284.045,11.346,99.711,-0.0037594
26.63,284.545,11.346,99.709,-0.0034843
26.68,285.046,11.346,99.707,-0.0037136
26.73,285.546,11.346,99.705,-0.0039413
26.78,286.046,11.345,99.703,-0.0035276
26.83,286.546,11.345,99.702,-0.0035275
26.88,287.046,11.345,99.7,-0.0038025
26.93,287.546,11.345,99.698,-0.0038017
26.98,288.046,11.344,99.696,-0.0039377
27.03,288.546,11.344,99.694,-0.0037546
27.08,289.046,11.344,99.692,-0.0041667
27.13,289.546,11.344,99.69,-0.0043008
27.18,290.046,11.344,99.688,-0.0041644
27.23,290.547,11.343,99.686,-0.0036152
27.28,291.047,11.343,99.684,-0.0035682
27.33,291.547,11.343,99.682,-0.0036152
27.38,292.047,11.343,99.68,-0.0037546
27.43,292.547,11.342,99.678,-0.0037102
27.48,293.047,11.342,99.676,-0.0034812
27.53,293.547,11.342,99.674,-0.0041239
27.58,294.047,11.342,99.672,-0.0040788
27.63,294.547,11.342,99.67,-0.0039872
27.68,295.047,11.341,99.668,-0.0042163
27.73,295.547,11.341,99.666,-0.0042179
27.78,296.048,11.341,99.664,-0.0043537
27.83,296.548,11.341,99.662,-0.0044872
27.88,297.048,11.34,99.66,-0.0042125
27.93,297.548,11.34,99.658,-0.0041667
27.98,298.048,11.34,99.656,-0.0041186
28.03,298.548,11.34,99.654,-0.0040263
28.08,299.048,11.339,99.652,-0.0040272
28.13,299.548,11.339,99.65,-0.0045280
28.18,300.048,11.339,99.647,-0.0042544
28.23,300.548,11.339,99.645,-0.0039356
28.28,301.048,11.338,99.643,-0.0041186
28.33,301.548,11.338,99.641,-0.0045771
28.38,302.049,11.338,99.639,-0.0039821
28.43,302.549,11.338,99.637,-0.0039813
28.48,303.049,11.338,99.635,-0.0038017
28.53,303.549,11.337,99.633,-0.0043522
28.58,304.049,11.337,99.63,-0.0044454
28.63,304.549,11.337,99.628,-0.0040337
28.68,305.049,11.337,99.626,-0.0041269
28.73,305.549,11.336,99.624,-0.0040803
28.78,306.049,11.336,99.622,-0.0040346
28.83,306.549,11.336,99.62,-0.0040780
28.88,307.049,11.336,99.618,-0.0041224
28.93,307.55,11.335,99.616,-0.0041667
28.98,308.05,11.335,99.613,-0.0046245
29.03,308.55,11.335,99.611,-0.0046245
29.08,309.05,11.335,99.609,-0.0044390
29.13,309.55,11.334,99.607,-0.0043016
29.18,310.05,11.334,99.604,-0.0048517
29.23,310.55,11.334,99.602,-0.0047136
29.28,311.05,11.334,99.6,-0.0049496
29.33,311.55,11.333,99.597,-0.0045788
29.38,312.05,11.333,99.595,-0.0044897
29.43,312.55,11.333,99.593,-0.0045830
29.48,313.051,11.332,99.591,-0.0051779
29.53,313.551,11.332,99.588,-0.0050394
29.58,314.051,11.332,99.586,-0.0046245
29.63,314.551,11.332,99.584,-0.0048103
29.68,315.051,11.331,99.581,-0.0051740
29.73,315.551,11.331,99.579,-0.0051282
29.78,316.051,11.331,99.576,-0.0049908
29.83,316.551,11.331,99.574,-0.0046245
29.88,317.051,11.33,99.572,-0.0050824
29.93,317.551,11.33,99.569,-0.0049451
29.98,318.051,11.33,99.567,-0.0054050
30.03,318.552,11.33,99.564,-0.0047619
30.08,319.052,11.329,99.562,-0.0044847
30.13,319.552,11.329,99.56,-0.0050805
30.18,320.052,11.329,99.557,-0.0048993
30.23,320.552,11.328,99.555,-0.0047619
30.28,321.052,11.328,99.552,-0.0051740
30.33,321.552,11.328,99.55,-0.0052198
30.38,322.052,11.328,99.547,-0.0052675
30.43,322.552,11.327,99.545,-0.0051778
30.48,323.052,11.327,99.542,-0.0054975
30.53,323.552,11.327,99.54,-0.0050844
30.58,324.053,11.326,99.537,-0.0051768
30.63,324.553,11.326,99.535,-0.0053132
30.68,325.053,11.326,99.532,-0.0054995
30.73,325.553,11.326,99.529,-0.0051768
30.78,326.053,11.325,99.527,-0.0057724
30.83,326.553,11.325,99.524,-0.0054000
30.88,327.053,11.325,99.521,-0.0056777
30.93,327.553,11.324,99.519,-0.0054487
30.98,328.053,11.324,99.516,-0.0056777
31.03,328.553,11.324,99.513,-0.0055362
31.08,329.053,11.323,99.51,-0.0058119
31.13,329.553,11.323,99.507,-0.0057671
31.18,330.054,11.323,99.505,-0.0059524
31.23,330.554,11.322,99.502,-0.0057692
31.28,331.054,11.322,99.499,-0.0059491
31.33,331.554,11.322,99.496,-0.0062271
31.38,332.054,11.321,99.493,-0.0057234
31.43,332.554,11.321,99.49,-0.0054975
31.48,333.054,11.321,99.487,-0.0056797
31.53,333.554,11.32,99.484,-0.0065042
31.58,334.054,11.32,99.481,-0.0066417
31.63,334.554,11.32,99.478,-0.0061847
31.68,335.054,11.319,99.475,-0.0062271
31.73,335.555,11.319,99.472,-0.0060015
31.78,336.055,11.319,99.469,-0.0059557
31.83,336.555,11.318,99.465,-0.0066850
31.88,337.055,11.318,99.462,-0.0063187
31.93,337.555,11.318,99.459,-0.0063621
31.98,338.055,11.317,99.456,-0.0066874
32.03,338.555,11.317,99.452,-0.0064103
32.08,339.055,11.316,99.449,-0.0064982
32.13,339.555,11.316,99.446,-0.0064138
32.18,340.055,11.316,99.442,-0.0064560
32.23,340.555,11.315,99.439,-0.0066813
32.28,341.056,11.315,99.435,-0.0068644
32.33,341.556,11.314,99.432,-0.0070551
32.38,342.056,11.314,99.428,-0.0066850
32.43,342.556,11.314,99.425,-0.0071429
32.48,343.056,11.313,99.421,-0.0072344
32.53,343.556,11.313,99.417,-0.0072384
32.58,344.056,11.312,99.414,-0.0072318
32.63,344.556,11.312,99.41,-0.0074203
32.68,345.056,11.312,99.407,-0.0074674
32.73,345.556,11.311,99.403,-0.0079212
32.78,346.056,11.311,99.399,-0.0076923
32.83,346.557,11.31,99.395,-0.0079212
32.88,347.057,11.31,99.391,-0.0080172
32.93,347.557,11.309,99.387,-0.0082875
32.98,348.057,11.309,99.383,-0.0082418
33.03,348.557,11.308,99.379,-0.0083364
33.08,349.057,11.308,99.375,-0.0080128
33.13,349.557,11.308,99.371,-0.0082373
33.18,350.057,11.307,99.367,-0.0080999
33.23,350.557,11.307,99.363,-0.0081884
33.28,351.057,11.306,99.359,-0.0082830
33.33,351.557,11.306,99.355,-0.0085513
33.38,352.058,11.305,99.351,-0.0086002
33.43,352.558,11.305,99.346,-0.0083242
33.48,353.058,11.304,99.342,-0.0089204
33.53,353.558,11.304,99.338,-0.0086996
33.58,354.058,11.303,99.333,-0.0091575
33.63,354.558,11.303,99.329,-0.0086538
33.68,355.058,11.302,99.325,-0.0088877
33.73,355.558,11.302,99.32,-0.0090234
33.78,356.058,11.301,99.316,-0.0089335
33.83,356.558,11.301,99.311,-0.0093864
33.88,357.058,11.3,99.306,-0.0093813
33.93,357.558,11.3,99.302,-0.0089645
33.98,358.059,11.299,99.297,-0.0094693
34.03,358.559,11.299,99.293,-0.0092440
34.08,359.059,11.298,99.288,-0.0092949
34.13,359.559,11.298,99.283,-0.0093407
34.18,360.059,11.297,99.278,-0.0097564
34.23,360.559,11.296,99.273,-0.0096612
34.28,361.059,11.296,99.269,-0.0095696
34.33,361.559,11.295,99.264,-0.0096558
34.38,362.059,11.295,99.259,-0.0095696
34.43,362.559,11.294,99.254,-0.0097932
34.48,363.059,11.294,99.249,-0.0101135
34.53,363.56,11.293,99.244,-0.0102489
34.58,364.06,11.293,99.239,-0.0098497
34.63,364.56,11.292,99.234,-0.0106130
34.68,365.06,11.291,99.229,-0.0103442
34.73,365.56,11.291,99.224,-0.0098937
34.78,366.06,11.29,99.219,-0.0097106
34.83,366.56,11.29,99.214,-0.0103022
34.88,367.06,11.289,99.209,-0.0102621
34.93,367.56,11.288,99.204,-0.0101742
34.98,368.06,11.288,99.198,-0.0101704
35.03,368.56,11.287,99.193,-0.0101723
35.08,369.061,11.287,99.188,-0.0098901
35.13,369.561,11.286,99.183,-0.0103670
35.18,370.061,11.286,99.178,-0.0106685
35.23,370.561,11.285,99.173,-0.0103022
35.28,371.061,11.284,99.168,-0.0104911
35.33,371.561,11.284,99.162,-0.0105427
35.38,372.061,11.283,99.157,-0.0110510
35.43,372.561,11.283,99.152,-0.0105885
35.48,373.061,11.282,99.147,-0.0110968
35.53,373.561,11.281,99.142,-0.0105123
35.58,374.061,11.281,99.136,-0.0104587
35.63,374.562,11.28,99.131,-0.0106881
35.68,375.062,11.28,99.126,-0.0107699
35.73,375.562,11.279,99.121,-0.0106724
35.78,376.062,11.278,99.115,-0.0102527
35.83,376.562,11.278,99.11,-0.0112493
35.88,377.062,11.277,99.105,-0.0108736
35.93,377.562,11.277,99.099,-0.0107703
35.98,378.062,11.276,99.094,-0.0107208
36.03,378.562,11.275,99.089,-0.0103975
36.08,379.062,11.275,99.084,-0.0105801
36.13,379.562,11.274,99.078,-0.0109885
36.18,380.063,11.274,99.073,-0.0101790
36.23,380.563,11.273,99.067,-0.0110026
36.28,381.063,11.272,99.062,-0.0106412
36.33,381.563,11.272,99.057,-0.0110086
36.38,382.063,11.271,99.051,-0.0107442
36.43,382.563,11.271,99.046,-0.0105633
36.48,383.063,11.27,99.04,-0.0105711
36.53,383.563,11.269,99.035,-0.0107999
36.58,384.063,11.269,99.03,-0.0105711
36.63,384.563,11.268,99.024,-0.0108974
36.68,385.063,11.267,99.019,-0.0109493
36.73,385.563,11.267,99.013,-0.0112282
36.78,386.064,11.266,99.008,-0.0106305
36.83,386.564,11.266,99.002,-0.0113198
36.88,387.064,11.265,98.997,-0.0102162
36.93,387.564,11.264,98.991,-0.0108099
36.98,388.064,11.264,98.986,-0.0108974
37.03,388.564,11.263,98.981,-0.0109034
37.08,389.064,11.262,98.975,-0.0112241
37.13,389.564,11.262,98.969,-0.0109971
37.18,390.064,11.261,98.964,-0.0109035
37.23,390.564,11.261,98.958,-0.0107661
37.28,391.064,11.26,98.953,-0.0104853
37.33,391.565,11.259,98.947,-0.0105828
37.38,392.065,11.259,98.942,-0.0112679
37.43,392.565,11.258,98.936,-0.0109432
37.48,393.065,11.257,98.931,-0.0107601
37.53,393.565,11.257,98.925,-0.0112595
37.58,394.065,11.256,98.919,-0.0114511
37.63,394.565,11.255,98.914,-0.0112179
37.68,395.065,11.255,98.908,-0.0112138
37.73,395.565,11.254,98.902,-0.0111202
37.78,396.065,11.254,98.897,-0.0114469
37.83,396.565,11.253,98.891,-0.0109392
37.88,397.066,11.252,98.885,-0.0114011
37.93,397.566,11.252,98.879,-0.0115321
37.98,398.066,11.251,98.874,-0.0113553
38.03,398.566,11.25,98.868,-0.0115343
38.08,399.066,11.25,98.862,-0.0117216
38.13,399.566,11.249,98.856,-0.0114511
38.18,400.066,11.248,98.85,-0.0114469
38.23,400.566,11.248,98.845,-0.0114406
38.28,401.066,11.247,98.839,-0.0114011
38.33,401.566,11.246,98.833,-0.0117151
38.38,402.066,11.246,98.827,-0.0119875
38.43,402.567,11.245,98.821,-0.0119439
38.48,403.067,11.244,98.815,-0.0117260
38.53,403.567,11.244,98.809,-0.0116300
38.58,404.067,11.243,98.803,-0.0119048
38.63,404.567,11.242,98.797,-0.0122711
38.68,405.067,11.241,98.791,-0.0119897
38.73,405.567,11.241,98.785,-0.0120487
38.78,406.067,11.24,98.778,-0.0114428
38.83,406.567,11.239,98.772,-0.0121795
38.88,407.067,11.239,98.766,-0.0122711
38.93,407.567,11.238,98.76,-0.0128135
38.98,408.068,11.237,98.753,-0.0127219
39.03,408.568,11.236,98.747,-0.0128088
39.08,409.068,11.236,98.74,-0.0125367
39.13,409.568,11.235,98.734,-0.0130423
39.18,410.068,11.234,98.727,-0.0124886
39.23,410.568,11.234,98.721,-0.0133070
39.28,411.068,11.233,98.714,-0.0128545
39.33,411.568,11.232,98.707,-0.0138635
39.38,412.068,11.231,98.7,-0.0138203
39.43,412.568,11.23,98.693,-0.0139575
39.48,413.068,11.23,98.686,-0.0134615
39.53,413.568,11.229,98.679,-0.0142857
39.58,414.069,11.228,98.672,-0.0142320
39.63,414.569,11.227,98.665,-0.0148810
39.68,415.069,11.226,98.657,-0.0149725
39.73,415.569,11.225,98.65,-0.0150183
39.78,416.069,11.225,98.642,-0.0146520
39.83,416.569,11.224,98.635,-0.0156077
39.88,417.069,11.223,98.627,-0.0152334
39.93,417.569,11.222,98.619,-0.0160626
39.98,418.069,11.221,98.611,-0.0158309
40.03,418.569,11.22,98.602,-0.0166514
40.08,419.069,11.219,98.594,-0.0167369
40.13,419.57,11.218,98.585,-0.0175727
40.18,420.07,11.217,98.576,-0.0177360
40.23,420.57,11.216,98.567,-0.0180756
40.28,421.07,11.215,98.558,-0.0189601
40.33,421.57,11.214,98.549,-0.0188645
40.38,422.07,11.213,98.539,-0.0194348
40.43,422.57,11.212,98.529,-0.0194490
40.48,423.07,11.211,98.519,-0.0204670
40.53,423.57,11.209,98.509,-0.0210241
40.58,424.07,11.208,98.498,-0.0220319
40.63,424.57,11.207,98.487,-0.0216117
40.68,425.071,11.206,98.476,-0.0230185
40.73,425.571,11.204,98.464,-0.0237006
40.78,426.071,11.203,98.452,-0.0249176
40.83,426.571,11.202,98.439,-0.0250825
40.88,427.071,11.2,98.427,-0.0259930
40.93,427.571,11.199,98.413,-0.0265325
40.98,428.071,11.197,98.4,-0.0278693
41.03,428.571,11.195,98.386,-0.0281336
41.08,429.071,11.194,98.371,-0.0288145
41.13,429.571,11.192,98.357,-0.0296324
41.18,430.071,11.19,98.342,-0.0307868
41.23,430.572,11.189,98.326,-0.0310556
41.28,431.072,11.187,98.31,-0.0323541
41.33,431.572,11.185,98.294,-0.0333150
41.38,432.072,11.183,98.277,-0.0344591
41.43,432.572,11.181,98.26,-0.0351190
41.48,433.072,11.179,98.242,-0.0367674
41.53,433.572,11.177,98.223,-0.0377081
41.58,434.072,11.175,98.203,-0.0394472
41.63,434.572,11.172,98.183,-0.0406593
41.68,435.072,11.17,98.162,-0.0435738
41.73,435.572,11.167,98.14,-0.0455128
41.78,436.073,11.165,98.116,-0.0479677
41.83,436.573,11.162,98.092,-0.0505037
41.88,437.073,11.159,98.066,-0.0533589
41.93,437.573,11.156,98.038,-0.0551490
41.98,438.073,11.153,98.01,-0.0587132
42.03,438.573,11.149,97.98,-0.0615737
42.08,439.073,11.146,97.948,-0.0648097
42.13,439.573,11.142,97.915,-0.0684105
42.18,440.073,11.138,97.879,-0.0731662
42.23,440.573,11.134,97.842,-0.0772644
42.28,441.073,11.129,97.802,-0.0832113
42.33,441.573,11.124,97.757,-0.0947853
42.38,442.074,11.118,97.703,-0.1162400
42.43,442.574,11.11,97.638,-0.1321140
42.48,443.074,11.102,97.564,-0.1618160
42.53,443.574,11.092,97.476,-0.1852450
42.58,444.074,11.081,97.378,-0.1949420
42.63,444.574,11.069,97.273,-0.2078300
42.68,445.074,11.056,97.161,-0.2214160
42.73,445.574,11.043,97.046,-0.2353480
42.78,446.074,11.029,96.923,-0.2374080
42.83,446.574,11.015,96.804,-0.2440020
42.88,447.074,11.001,96.674,-0.2688760
42.93,447.575,10.984,96.529,-0.2857790
42.98,448.075,10.967,96.379,-0.3038920
43.03,448.575,10.949,96.217,-0.3491840
43.08,449.075,10.928,96.035,-0.3870730
43.13,449.575,10.903,95.814,-0.4649270
43.18,450.075,10.876,95.578,-0.4828520
43.23,450.575,10.845,95.305,-0.5746250
43.28,451.075,10.81,95.001,-0.6204300
43.33,451.575,10.772,94.664,-0.7507650
43.38,452.075,10.725,94.253,-0.8061220
43.43,452.575,10.678,93.838,-0.8651350
43.48,453.076,10.63,93.413,-0.8807120
43.53,453.576,10.579,92.968,-0.9315040
43.58,454.076,10.526,92.506,-0.9323720
43.63,454.576,10.471,92.016,-1.02418
43.68,455.076,10.411,91.493,-1.05408
43.73,455.576,10.348,90.943,-1.11767
43.78,456.076,10.285,90.387,-1.11399
43.83,456.576,10.224,89.851,-1.07412
43.88,457.076,10.159,89.275,-1.31946
43.93,457.576,10.082,88.597,-1.37115
43.98,458.076,10.001,87.887,-1.47733
44.03,458.577,9.915,87.133,-1.50533
44.08,459.077,9.823,86.321,-1.7115
44.13,459.577,9.723,85.446,-1.794
44.18,460.077,9.617,84.518,-1.88509
44.23,460.577,9.506,83.542,-2.01591
44.28,461.077,9.39,82.517,-2.10756
44.33,461.577,9.269,81.453,-2.11217
44.38,462.077,9.147,80.388,-2.2136
44.43,462.577,9.016,79.23,-2.33274
44.48,463.077,8.876,78.003,-2.50453
44.53,463.577,8.723,76.654,-2.63734
44.58,464.078,8.574,75.346,-2.82335
44.63,464.578,8.417,73.965,-2.84022
44.68,465.078,8.252,72.52,-2.91217
44.73,465.578,8.078,70.991,-3.17211
44.78,466.078,7.9,69.427,-3.05844
44.83,466.578,7.717,67.814,-3.42969
44.88,467.078,7.527,66.143,-3.31465
44.93,467.578,7.322,64.345,-3.52205
44.98,468.078,7.122,62.593,-3.54502
45.03,468.578,6.913,60.751,-3.81561
45.08,469.078,6.697,58.853,-3.92814
45.13,469.578,6.475,56.899,-3.77723
45.18,470.079,6.246,54.89,-3.96651
45.23,470.579,6.019,52.899,-4.11715
45.28,471.079,5.783,50.822,-4.2339
45.33,471.579,5.546,48.738,-4.24066
45.38,472.079,5.304,46.612,-4.14571
45.43,472.579,5.06,44.472,-4.14685
45.48,473.079,4.817,42.329,-4.30394
45.53,473.579,4.568,40.141,-4.37315
45.58,474.079,4.319,37.952,-4.31456
45.63,474.579,4.081,35.861,-4.26955
45.68,475.079,3.833,33.686,-4.26221
45.73,475.58,3.587,31.524,-4.3449
45.78,476.08,3.346,29.406,-4.04467
45.83,476.58,3.107,27.308,-4.07687
45.88,477.08,2.875,25.269,-4.10982
45.93,477.58,2.647,23.264,-3.94386
45.98,478.08,2.425,21.308,-3.8714
46.03,478.58,2.21,19.422,-3.78153
46.08,479.08,2.003,17.607,-3.48955
46.13,479.58,1.812,15.924,-3.3526
46.18,480.08,1.623,14.264,-3.19688
46.23,480.58,1.446,12.706,-2.98226
46.28,481.081,1.285,11.289,-2.81761
46.33,481.581,1.13,9.932,-2.529
46.38,482.081,0.9880000,8.683,-2.36843
46.43,482.581,0.8630000,7.581,-2.14415
46.48,483.081,0.7460000,6.554,-1.99018
46.53,483.581,0.6420000,5.639,-1.68761
46.58,484.081,0.5530000,4.863,-1.49552
46.63,484.581,0.4750000,4.17,-1.25191
46.68,485.081,0.4080000,3.583,-1.09994
46.72,485.581,0.3540000,3.11,-0.8630800
46.77,486.081,0.3080000,2.707,-0.7109790
46.82,486.582,0.2710000,2.378,-0.5640930
46.87,487.082,0.2410000,2.116,-0.4618000
46.92,487.582,0.2180000,1.916,-0.3713880
46.97,488.082,0.2000000,1.757,-0.2704550
47.02,488.582,0.1870000,1.639,-0.2047970
47.07,489.082,0.1770000,1.552,-0.1435940
47.12,489.582,0.1700000,1.493,-0.0928194
47.17,490.082,0.1650000,1.454,-0.0621138
47.22,490.582,0.1620000,1.426,-0.0560215
47.28,491.082,0.1590000,1.397,-0.0559689
47.33,491.582,0.1560000,1.371,-0.0515190
47.38,492.083,0.1530000,1.346,-0.0448598
47.43,492.583,0.1510000,1.326,-0.0376580
47.48,493.083,0.1490000,1.309,-0.0310644
47.53,493.583,0.1470000,1.294,-0.0253477
47.58,494.083,0.1460000,1.283,-0.0203413
47.63,494.583,0.1450000,1.274,-0.0164279
47.68,495.083,0.1440000,1.267,-0.0131545
47.73,495.583,0.1440000,1.261,-0.0100670
47.78,496.083,0.1430000,1.256,-0.0084543
47.83,496.583,0.1430000,1.253,-0.0071013
47.88,497.083,0.1420000,1.25,-0.0054745
47.93,497.583,0.1420000,1.248,-0.0043608
47.98,498.084,0.1420000,1.246,-0.0031735
48.03,498.584,0.1420000,1.244,-0.0032187
48.08,499.084,0.1410000,1.243,-0.0021533
48.13,499.584,0.1410000,1.242,-0.0022853
48.18,500.084,0.1410000,1.241,-0.0015451
48.23,500.584,0.1410000,1.24,-0.0014636
48.28,501.084,0.1410000,1.24,-0.0009391
48.33,501.584,0.1410000,1.239,-0.0008609
48.38,502.084,0.1410000,1.239,-0.0003582
48.43,502.584,0.1410000,1.239,-0.0005313
48.48,503.084,0.1410000,1.238,-0.0003818
48.53,503.585,0.1410000,1.238,-0.0003200
48.58,504.085,0.1410000,1.238,-0.0002153
48.63,504.585,0.1410000,1.238,-0.0003014
48.68,505.085,0.1410000,1.238,0.0000559
48.73,505.585,0.1410000,1.238,-0.0005695
48.78,506.085,0.1410000,1.237,-0.0002010
48.83,506.585,0.1410000,1.237,-0.0004712
48.88,507.085,0.1410000,1.237,-0.0002558
48.93,507.585,0.1410000,1.237,-0.0003989
48.98,508.085,0.1410000,1.237,-0.0001093
49.03,508.585,0.1410000,1.237,-0.0002258
49.08,509.086,0.1410000,1.237,-0.0003465
49.13,509.586,0.1410000,1.237,0.0000465
49.18,510.086,0.1410000,1.237,-0.0002437
49.23,510.586,0.1410000,1.237,-0.0005634
49.28,511.086,0.1410000,1.236,-0.0002092
49.33,511.586,0.1410000,1.236,-0.0000807
49.38,512.086,0.1410000,1.236,-0.0004985
49.43,512.586,0.1410000,1.236,-0.0000979
49.48,513.086,0.1410000,1.236,0.0001450
49.53,513.586,0.1410000,1.236,0.0001521
49.58,514.086,0.1410000,1.236,-0.0002092
49.63,514.587,0.1410000,1.236,0.0001514
49.68,515.087,0.1410000,1.236,-0.0005034
49.73,515.587,0.1410000,1.236,-0.0001143
49.78,516.087,0.1410000,1.236,0.0001573
49.83,516.587,0.1410000,1.236,-0.0000514
49.88,517.087,0.1410000,1.236,-0.0003561
49.93,517.587,0.1410000,1.236,-0.0001801
49.98,518.087,0.1410000,1.236,-0.0003252
50.03,518.587,0.1410000,1.236,-0.0003102
50.08,519.087,0.1410000,1.236,-0.0005055
50.13,519.587,0.1410000,1.235,-0.0001779
50.18,520.088,0.1410000,1.235,-0.0003380
50.23,520.588,0.1410000,1.235,-0.0001422
50.28,521.088,0.1410000,1.235,-0.0004338
50.33,521.588,0.1410000,1.235,-0.0005460
50.38,522.088,0.1400000,1.235,-0.0004008
50.43,522.588,0.1400000,1.235,-0.0002285
50.48,523.088,0.1400000,1.234,-0.0002512
50.53,523.588,0.1400000,1.234,-0.0002471
50.58,524.088,0.1400000,1.234,-0.0000956
50.63,524.588,0.1400000,1.234,-0.0004176
50.68,525.088,0.1400000,1.234,-0.0006827
50.73,525.588,0.1400000,1.234,-0.0002967
50.78,526.089,0.1400000,1.234,-0.0002794
50.83,526.589,0.1400000,1.234,-0.0005074
50.88,527.089,0.1400000,1.233,-0.0007168
50.93,527.589,0.1400000,1.233,-0.0004135
50.98,528.089,0.1400000,1.233,-0.0003303
51.03,528.589,0.1400000,1.233,-0.0005278
51.08,529.089,0.1400000,1.233,-0.0005031
51.13,529.589,0.1400000,1.232,-0.0004066
51.18,530.089,0.1400000,1.232,-0.0003907
51.23,530.589,0.1400000,1.232,-0.0005560
51.28,531.089,0.1400000,1.232,-0.0003905
51.33,531.59,0.1400000,1.231,-0.0008904
51.38,532.09,0.1400000,1.231,-0.0004339
51.43,532.59,0.1400000,1.231,-0.0004067
51.48,533.09,0.1400000,1.231,-0.0008080
51.53,533.59,0.1400000,1.23,-0.0010531
51.58,534.09,0.1400000,1.23,-0.0006246
51.63,534.59,0.1400000,1.23,-0.0005254
51.68,535.09,0.1400000,1.229,-0.0009159
51.73,535.59,0.1400000,1.229,-0.0004067
51.78,536.09,0.1400000,1.229,-0.0006525
51.83,536.59,0.1400000,1.229,-0.0003888
51.88,537.091,0.1400000,1.228,-0.0003334
51.93,537.591,0.1400000,1.228,-0.0006081
51.98,538.091,0.1400000,1.228,-0.0004769
52.03,538.591,0.1400000,1.227,-0.0008241
52.08,539.091,0.1400000,1.227,-0.0003255
52.13,539.591,0.1400000,1.227,-0.0002309
52.18,540.091,0.1400000,1.227,-0.0001616
52.23,540.591,0.1400000,1.227,0.0001694
52.28,541.091,0.1400000,1.227,-0.0000193
52.33,541.591,0.1400000,1.226,-0.0004650
52.38,542.091,0.1400000,1.226,-0.0000921
52.43,542.592,0.1400000,1.226,-0.0001774
52.48,543.092,0.1390000,1.226,-0.0001510
52.53,543.592,0.1390000,1.226,-0.0005855
52.58,544.092,0.1390000,1.225,-0.0004795
52.63,544.592,0.1390000,1.225,-0.0002796
52.68,545.092,0.1390000,1.225,-0.0004496
52.73,545.592,0.1390000,1.225,-0.0004633
52.78,546.092,0.1390000,1.225,-0.0003838
52.83,546.592,0.1390000,1.224,-0.0001486
52.88,547.092,0.1390000,1.224,-0.0004334
52.93,547.592,0.1390000,1.224,-0.0003675
52.98,548.093,0.1390000,1.224,-0.0002980
53.03,548.593,0.1390000,1.223,-0.0002483
53.08,549.093,0.1390000,1.223,-0.0004548
53.13,549.593,0.1390000,1.223,-0.0006023
53.18,550.093,0.1390000,1.223,-0.0006095
53.23,550.593,0.1390000,1.222,-0.0005531
53.28,551.093,0.1390000,1.222,-0.0007299
53.33,551.593,0.1390000,1.222,-0.0008340
53.38,552.093,0.1390000,1.222,-0.0003211
53.43,552.593,0.1390000,1.221,-0.0002805
53.48,553.093,0.1390000,1.221,-0.0000200
53.53,553.593,0.1390000,1.221,-0.0006763
53.58,554.094,0.1390000,1.221,-0.0005084
53.63,554.594,0.1390000,1.221,-0.0007199
53.68,555.094,0.1390000,1.22,-0.0009249
53.73,555.594,0.1390000,1.22,-0.0008934
53.78,556.094,0.1390000,1.22,-0.0006606
53.83,556.594,0.1390000,1.22,-0.0004978
53.88,557.094,0.1390000,1.219,-0.0004589
53.93,557.594,0.1390000,1.219,-0.0005896
53.98,558.094,0.1390000,1.219,-0.0005391
54.03,558.594,0.1390000,1.219,-0.0003109
54.08,559.094,0.1390000,1.219,-0.0007669
54.13,559.595,0.1390000,1.218,-0.0003363
54.18,560.095,0.1390000,1.218,-0.0006340
54.23,560.595,0.1390000,1.218,-0.0003324
54.28,561.095,0.1390000,1.218,-0.0005409
54.33,561.595,0.1390000,1.217,-0.0005165
54.38,562.095,0.1380000,1.217,-0.0003620
54.43,562.595,0.1380000,1.217,-0.0004049
54.48,563.095,0.1380000,1.217,-0.0002411
54.53,563.595,0.1380000,1.217,-0.0004994
54.58,564.095,0.1380000,1.216,-0.0003019
54.63,564.595,0.1380000,1.216,-0.0003463
54.68,565.096,0.1380000,1.216,-0.0000064
54.73,565.596,0.1380000,1.216,-0.0005112
54.78,566.096,0.1380000,1.215,-0.0007221
54.83,566.596,0.1380000,1.215,-0.0008807
54.88,567.096,0.1380000,1.215,-0.0004596
54.93,567.596,0.1380000,1.214,-0.0001638
54.98,568.096,0.1380000,1.214,-0.0005234
55.03,568.596,0.1380000,1.214,-0.0005846
55.08,569.096,0.1380000,1.214,-0.0002955
55.13,569.596,0.1380000,1.213,0.0002840
55.18,570.096,0.1380000,1.213,-0.0003723
55.23,570.597,0.1380000,1.213,-0.0004922
55.28,571.097,0.1380000,1.213,-0.0006374
55.33,571.597,0.1380000,1.212,-0.0005639
55.38,572.097,0.1380000,1.212,-0.0009628
55.43,572.597,0.1380000,1.212,-0.0007192
55.48,573.097,0.1380000,1.211,-0.0008969
55.53,573.597,0.1380000,1.211,-0.0009891
55.58,574.097,0.1380000,1.211,-0.0004854
55.63,574.597,0.1380000,1.21,-0.0007533
55.68,575.097,0.1380000,1.21,-0.0009321
55.73,575.597,0.1380000,1.21,-0.0006630
55.78,576.098,0.1380000,1.209,-0.0009265
55.83,576.598,0.1380000,1.209,-0.0006933
55.88,577.098,0.1380000,1.208,-0.0008077
55.93,577.598,0.1370000,1.208,-0.0005903
55.98,578.098,0.1370000,1.208,-0.0008226
56.03,578.598,0.1370000,1.207,-0.0003902
56.08,579.098,0.1370000,1.207,-0.0008519
56.13,579.598,0.1370000,1.206,-0.0008627
56.18,580.098,0.1370000,1.206,-0.0010904
56.23,580.598,0.1370000,1.205,-0.0014458
56.28,581.098,0.1370000,1.205,-0.0009662
56.33,581.598,0.1370000,1.204,-0.0009712
56.38,582.099,0.1370000,1.203,-0.0010676
56.43,582.599,0.1370000,1.203,-0.0015117
56.48,583.099,0.1370000,1.202,-0.0011356
56.53,583.599,0.1370000,1.201,-0.0011370
56.58,584.099,0.1370000,1.201,-0.0014502
56.63,584.599,0.1370000,1.2,-0.0013843
56.68,585.099,0.1360000,1.199,-0.0015092
56.73,585.599,0.1360000,1.199,-0.0017135
56.78,586.099,0.1360000,1.198,-0.0013915
56.83,586.599,0.1360000,1.197,-0.0016573
56.88,587.099,0.1360000,1.196,-0.0019352
56.93,587.6,0.1360000,1.195,-0.0014629
56.98,588.1,0.1360000,1.195,-0.0017016
57.03,588.6,0.1360000,1.194,-0.0022619
57.08,589.1,0.1360000,1.193,-0.0018408
57.13,589.6,0.1360000,1.192,-0.0016179
57.16,590,0.1360000,1.191,-0.0018709