File: R/rHDPE_App/app/www/Output/TGA/Condensed_Data/Resin24_2_.csv
0.8800000,30,13.996,100.027,0.0031648
0.9400000,30.5001,13.996,100.029,0.0006832
1,31.0002,13.996,100.031,0.0017214
1.06,31.5003,13.996,100.032,0.0007083
1.12,32.0004,13.996,100.034,0.0015539
1.18,32.5004,13.997,100.035,0.0045989
1.24,33.0005,13.997,100.036,0.0022480
1.29,33.5006,13.997,100.037,-0.0002066
1.35,34.0007,13.997,100.038,0.0044590
1.41,34.5008,13.997,100.039,0.0008138
1.46,35.0009,13.997,100.04,0.0023218
1.52,35.501,13.998,100.041,0.0007024
1.57,36.0011,13.998,100.042,0.0026921
1.63,36.5012,13.998,100.043,-0.0002978
1.68,37.0013,13.998,100.043,0.0030627
1.73,37.5013,13.998,100.044,0.0007380
1.79,38.0014,13.998,100.045,0.0009322
1.84,38.5015,13.998,100.045,0.0023470
1.89,39.0016,13.998,100.046,0.0001465
1.95,39.5017,13.998,100.047,0.0019977
2,40.0018,13.998,100.048,0.0016544
2.05,40.5019,13.999,100.048,0.0005340
2.11,41.002,13.999,100.049,0.0020851
2.16,41.5021,13.999,100.05,0.0008710
2.21,42.0021,13.999,100.05,0.0006280
2.26,42.5022,13.999,100.051,0.0015910
2.32,43.0023,13.999,100.052,0.0016847
2.37,43.5024,13.999,100.052,0.0012014
2.42,44.0025,13.999,100.053,0.0014404
2.48,44.5026,13.999,100.054,0.0019177
2.53,45.0027,13.999,100.055,0.0012455
2.58,45.5028,14,100.056,0.0012918
2.63,46.0029,14,100.056,0.0016718
2.68,46.5029,14,100.057,0.0015734
2.74,47.003,14,100.058,0.0012380
2.79,47.5031,14,100.058,0.0008557
2.84,48.0032,14,100.059,0.0018046
2.89,48.5033,14,100.06,0.0020386
2.94,49.0034,14,100.061,0.0013730
2.99,49.5035,14,100.062,0.0009926
3.05,50.0036,14.001,100.062,0.0016537
3.1,50.5037,14.001,100.063,0.0020294
3.15,51.0038,14.001,100.064,0.0016027
3.2,51.5038,14.001,100.065,0.0007535
3.25,52.0039,14.001,100.065,0.0011287
3.3,52.504,14.001,100.066,0.0012689
3.36,53.0041,14.001,100.067,0.0012673
3.41,53.5042,14.001,100.067,0.0013120
3.46,54.0043,14.001,100.068,0.0012179
3.51,54.5044,14.001,100.069,0.0014038
3.56,55.0045,14.001,100.069,0.0015895
3.61,55.5046,14.002,100.07,0.0013079
3.66,56.0046,14.002,100.071,0.0010270
3.71,56.5047,14.002,100.071,0.0011658
3.76,57.0048,14.002,100.072,0.0009788
3.81,57.5049,14.002,100.072,0.0007453
3.86,58.005,14.002,100.073,0.0011638
3.92,58.5051,14.002,100.074,0.0016284
3.97,59.0052,14.002,100.074,0.0011162
4.02,59.5053,14.002,100.075,0.0015801
4.07,60.0054,14.002,100.076,0.0013002
4.12,60.5054,14.002,100.076,0.0011141
4.17,61.0055,14.003,100.077,0.0013916
4.22,61.5056,14.003,100.077,0.0017146
4.27,62.0057,14.003,100.078,0.0011115
4.32,62.5058,14.003,100.079,0.0012029
4.37,63.0059,14.003,100.079,0.0015256
4.42,63.506,14.003,100.08,0.0008778
4.47,64.0061,14.003,100.081,0.0010157
4.52,64.5062,14.003,100.081,0.0011539
4.58,65.0063,14.003,100.082,0.0010146
4.63,65.5063,14.003,100.082,0.0009684
4.68,66.0064,14.003,100.083,0.0014752
4.73,66.5065,14.003,100.084,0.0010138
4.78,67.0066,14.004,100.084,0.0010598
4.83,67.5067,14.004,100.085,0.0013355
4.88,68.0068,14.004,100.085,0.0008749
4.93,68.5069,14.004,100.086,0.0009202
4.98,69.007,14.004,100.086,0.0008741
5.03,69.5071,14.004,100.087,0.0012419
5.08,70.0071,14.004,100.087,0.0012409
5.13,70.5072,14.004,100.088,0.0009649
5.18,71.0073,14.004,100.088,0.0010564
5.23,71.5074,14.004,100.089,0.0011017
5.28,72.0075,14.004,100.09,0.0007344
5.33,72.5076,14.004,100.09,0.0010553
5.38,73.0077,14.004,100.09,0.0009170
5.43,73.5078,14.004,100.091,0.0004583
5.48,74.0079,14.005,100.091,0.0009621
5.53,74.5079,14.005,100.092,0.0010083
5.58,75.008,14.005,100.092,0.0006416
5.63,75.5081,14.005,100.093,0.0009620
5.68,76.0082,14.005,100.093,0.0012373
5.73,76.5083,14.005,100.094,0.0008711
5.78,77.0084,14.005,100.094,0.0010547
5.83,77.5085,14.005,100.095,0.0012375
5.88,78.0086,14.005,100.095,0.0006873
5.93,78.5087,14.005,100.096,0.0006416
5.98,79.0088,14.005,100.096,0.0010080
6.03,79.5088,14.005,100.096,0.0010078
6.08,80.0089,14.005,100.097,0.0007785
6.13,80.509,14.005,100.097,-0.0001832
6.18,81.0091,14.005,100.097,0.0006871
6.23,81.5092,14.005,100.098,0.0010534
6.28,82.0093,14.006,100.098,0.0005496
6.33,82.5094,14.006,100.099,0.0005499
6.38,83.0095,14.006,100.099,0.0009620
6.43,83.5096,14.006,100.1,0.0006867
6.48,84.0096,14.006,100.1,0.0002290
6.53,84.5097,14.006,100.1,0.0012372
6.58,85.0098,14.006,100.101,0.0006415
6.63,85.5099,14.006,100.101,0.0006874
6.68,86.01,14.006,100.102,0.0007792
6.73,86.5101,14.006,100.102,0.0009623
6.78,87.0102,14.006,100.102,0.0005041
6.83,87.5103,14.006,100.103,0.0005955
6.88,88.0104,14.006,100.103,0.0007786
6.93,88.5104,14.006,100.104,0.0005495
6.98,89.0105,14.006,100.104,0.0009158
7.03,89.5106,14.006,100.104,0.0006410
7.08,90.0107,14.006,100.105,0.0003204
7.13,90.5108,14.006,100.105,0.0005491
7.18,91.0109,14.007,100.105,0.0006404
7.23,91.511,14.007,100.106,0.0008232
7.28,92.0111,14.007,100.106,0.0000914
7.33,92.5112,14.007,100.106,0.0005486
7.38,93.0113,14.007,100.106,0.0006857
7.43,93.5113,14.007,100.107,0.0006858
7.48,94.0114,14.007,100.107,0.0005487
7.53,94.5115,14.007,100.107,0.0008233
7.58,95.0116,14.007,100.108,0.0000000
7.63,95.5117,14.007,100.108,0.0004575
7.68,96.0118,14.007,100.108,0.0001830
7.73,96.5119,14.007,100.108,0.0000000
7.78,97.012,14.007,100.109,0.0003658
7.83,97.5121,14.007,100.109,0.0004574
7.88,98.0121,14.007,100.109,0.0001830
7.93,98.5122,14.007,100.109,0.0005487
7.98,99.0123,14.007,100.109,0.0003659
8.03,99.5124,14.007,100.11,0.0005032
8.08,100.013,14.007,100.11,0.0002289
8.13,100.513,14.007,100.11,0.0007329
8.18,101.013,14.007,100.111,0.0006873
8.23,101.513,14.007,100.111,0.0004580
8.28,102.013,14.007,100.111,0.0000916
8.33,102.513,14.007,100.111,0.0006871
8.38,103.013,14.007,100.112,0.0003662
8.43,103.513,14.007,100.112,0.0002289
8.48,104.013,14.007,100.112,0.0005493
8.53,104.513,14.007,100.112,0.0005948
8.58,105.013,14.007,100.112,0.0006867
8.63,105.513,14.008,100.113,0.0004574
8.68,106.014,14.008,100.113,0.0005489
8.73,106.514,14.008,100.113,0.0002288
8.78,107.014,14.008,100.113,0.0001375
8.83,107.514,14.008,100.113,0.0001833
8.88,108.014,14.008,100.113,0.0002750
8.93,108.514,14.008,100.114,0.0003667
8.98,109.014,14.008,100.114,0.0003666
9.03,109.514,14.008,100.114,0.0008249
9.08,110.014,14.008,100.114,0.0002289
9.13,110.514,14.008,100.114,0.0006403
9.18,111.014,14.008,100.115,0.0003203
9.23,111.515,14.008,100.115,0.0003661
9.28,112.015,14.008,100.115,0.0004576
9.33,112.515,14.008,100.115,0.0004575
9.38,113.015,14.008,100.115,0.0002289
9.43,113.515,14.008,100.115,0.0002291
9.48,114.015,14.008,100.115,0.0000916
9.53,114.515,14.008,100.116,0.0006870
9.58,115.015,14.008,100.116,-0.0003661
9.63,115.515,14.008,100.116,0.0002287
9.68,116.015,14.008,100.116,0.0005492
9.73,116.515,14.008,100.116,0.0001830
9.78,117.016,14.008,100.116,-0.0000458
9.83,117.516,14.008,100.116,0.0006864
9.88,118.016,14.008,100.117,0.0001373
9.93,118.516,14.008,100.117,0.0004580
9.98,119.016,14.008,100.117,0.0003665
10.03,119.516,14.008,100.117,0.0000916
10.08,120.016,14.008,100.117,0.0000916
10.13,120.516,14.008,100.117,0.0000000
10.18,121.016,14.008,100.117,0.0002749
10.23,121.516,14.008,100.117,-0.0002291
10.28,122.016,14.008,100.117,0.0000000
10.33,122.517,14.008,100.117,0.0001375
10.38,123.017,14.008,100.117,0.0001833
10.43,123.517,14.008,100.117,-0.0002291
10.48,124.017,14.008,100.117,0.0006875
10.53,124.517,14.008,100.118,0.0000916
10.58,125.017,14.008,100.118,0.0000458
10.63,125.517,14.008,100.118,0.0004585
10.68,126.017,14.008,100.118,0.0000000
10.73,126.517,14.008,100.118,0.0004584
10.78,127.017,14.008,100.119,-0.0000916
10.83,127.517,14.008,100.119,0.0005958
10.88,128.018,14.008,100.119,0.0002292
10.93,128.518,14.008,100.119,0.0000000
10.98,129.018,14.008,100.119,0.0005046
11.03,129.518,14.008,100.119,0.0008259
11.08,130.018,14.009,100.12,0.0001377
11.13,130.518,14.009,100.12,0.0005966
11.18,131.018,14.009,100.12,0.0006424
11.23,131.518,14.009,100.12,0.0005967
11.28,132.018,14.009,100.121,0.0009178
11.33,132.518,14.009,100.121,0.0004585
11.38,133.018,14.009,100.121,0.0001376
11.43,133.518,14.009,100.121,0.0000917
11.48,134.019,14.009,100.121,0.0005959
11.53,134.519,14.009,100.122,0.0006877
11.58,135.019,14.009,100.122,0.0004584
11.63,135.519,14.009,100.122,0.0006417
11.68,136.019,14.009,100.122,0.0005039
11.73,136.519,14.009,100.122,0.0002748
11.78,137.019,14.009,100.122,0.0003663
11.83,137.519,14.009,100.123,0.0004575
11.88,138.019,14.009,100.122,-0.0001372
11.93,138.519,14.009,100.122,-0.0002742
11.98,139.019,14.009,100.122,-0.0004568
12.03,139.52,14.009,100.122,-0.0002282
12.08,140.02,14.009,100.122,-0.0005012
12.13,140.52,14.009,100.122,-0.0009103
12.18,141.02,14.009,100.121,-0.0014094
12.23,141.52,14.009,100.12,-0.0012265
12.28,142.02,14.008,100.119,-0.0015431
12.33,142.52,14.008,100.119,-0.0017229
12.38,143.02,14.008,100.118,-0.0019931
12.43,143.52,14.008,100.117,-0.0020824
12.48,144.02,14.008,100.116,-0.0019466
12.53,144.52,14.008,100.115,-0.0017679
12.58,145.021,14.008,100.114,-0.0019517
12.63,145.521,14.008,100.113,-0.0014091
12.68,146.021,14.007,100.112,-0.0015938
12.73,146.521,14.007,100.112,-0.0012317
12.78,147.021,14.007,100.111,-0.0011426
12.83,147.521,14.007,100.11,-0.0010076
12.88,148.021,14.007,100.11,-0.0011008
12.93,148.521,14.007,100.109,-0.0008270
12.98,149.021,14.007,100.109,-0.0007820
13.03,149.521,14.007,100.108,-0.0011049
13.08,150.021,14.007,100.108,-0.0007368
13.13,150.522,14.007,100.107,-0.0017035
13.18,151.022,14.007,100.107,-0.0005524
13.23,151.522,14.007,100.107,-0.0008744
13.28,152.022,14.007,100.106,-0.0000921
13.33,152.522,14.007,100.106,-0.0001841
13.38,153.022,14.007,100.106,-0.0005522
13.43,153.522,14.007,100.106,-0.0003220
13.48,154.022,14.007,100.106,-0.0007360
13.53,154.522,14.007,100.105,-0.0004600
13.58,155.022,14.006,100.105,-0.0007351
13.63,155.522,14.006,100.105,-0.0003216
13.68,156.023,14.006,100.105,-0.0003217
13.73,156.523,14.006,100.105,-0.0004595
13.78,157.023,14.006,100.104,-0.0002296
13.83,157.523,14.006,100.104,-0.0000919
13.88,158.023,14.006,100.104,-0.0007348
13.93,158.523,14.006,100.104,-0.0005506
13.98,159.023,14.006,100.104,-0.0003666
14.03,159.523,14.006,100.104,0.0000000
14.08,160.023,14.006,100.104,-0.0002751
14.13,160.523,14.006,100.103,-0.0003208
14.18,161.023,14.006,100.103,-0.0004583
14.23,161.523,14.006,100.103,-0.0004123
14.28,162.024,14.006,100.103,-0.0000917
14.33,162.524,14.006,100.103,-0.0005503
14.38,163.024,14.006,100.102,-0.0002292
14.43,163.524,14.006,100.102,-0.0000917
14.48,164.024,14.006,100.102,-0.0005046
14.53,164.524,14.006,100.102,-0.0002754
14.58,165.024,14.006,100.101,-0.0009183
14.63,165.524,14.006,100.101,-0.0001838
14.68,166.024,14.006,100.101,-0.0002296
14.73,166.524,14.006,100.101,-0.0005513
14.78,167.024,14.006,100.1,-0.0000919
14.83,167.525,14.006,100.1,0.0000000
14.88,168.025,14.006,100.1,-0.0004128
14.93,168.525,14.006,100.1,-0.0004583
14.98,169.025,14.006,100.1,-0.0000916
15.03,169.525,14.006,100.1,-0.0007329
15.08,170.025,14.006,100.1,-0.0003207
15.13,170.525,14.006,100.099,-0.0003666
15.18,171.025,14.006,100.099,0.0000000
15.23,171.525,14.006,100.099,-0.0003664
15.28,172.025,14.006,100.099,-0.0001374
15.33,172.525,14.006,100.099,-0.0003207
15.38,173.026,14.006,100.098,-0.0005038
15.43,173.526,14.006,100.098,-0.0003206
15.48,174.026,14.006,100.098,-0.0001374
15.53,174.526,14.006,100.098,-0.0005039
15.58,175.026,14.005,100.098,-0.0002290
15.63,175.526,14.005,100.098,-0.0003666
15.68,176.026,14.005,100.098,-0.0001375
15.73,176.526,14.005,100.097,-0.0003209
15.78,177.026,14.005,100.097,-0.0000917
15.83,177.526,14.005,100.097,-0.0000916
15.88,178.026,14.005,100.097,-0.0004581
15.93,178.527,14.005,100.097,-0.0004122
15.98,179.027,14.005,100.097,0.0001375
16.03,179.527,14.005,100.097,-0.0004582
16.08,180.027,14.005,100.097,-0.0002291
16.13,180.527,14.005,100.097,-0.0000459
16.18,181.027,14.005,100.096,-0.0003208
16.23,181.527,14.005,100.096,-0.0004124
16.28,182.027,14.005,100.096,-0.0003206
16.34,182.527,14.005,100.096,-0.0002747
16.39,183.027,14.005,100.096,-0.0000916
16.44,183.527,14.005,100.096,-0.0004119
16.49,184.028,14.005,100.096,-0.0001373
16.53,184.528,14.005,100.096,-0.0009154
16.58,185.028,14.005,100.095,-0.0004572
16.63,185.528,14.005,100.095,-0.0003201
16.68,186.028,14.005,100.095,-0.0002287
16.73,186.528,14.005,100.095,-0.0003202
16.78,187.028,14.005,100.094,-0.0005947
16.83,187.528,14.005,100.094,-0.0003662
16.88,188.028,14.005,100.094,-0.0004581
16.93,188.528,14.005,100.094,0.0002750
16.98,189.028,14.005,100.094,-0.0002294
17.03,189.528,14.005,100.094,-0.0003210
17.09,190.029,14.005,100.094,-0.0002292
17.14,190.529,14.005,100.094,0.0000000
17.19,191.029,14.005,100.094,-0.0004124
17.24,191.529,14.005,100.093,-0.0001833
17.29,192.029,14.005,100.093,-0.0001832
17.34,192.529,14.005,100.093,-0.0002289
17.39,193.029,14.005,100.093,-0.0000916
17.44,193.529,14.005,100.093,-0.0005497
17.49,194.029,14.005,100.093,-0.0002291
17.54,194.529,14.005,100.093,-0.0003665
17.59,195.029,14.005,100.092,-0.0001374
17.64,195.53,14.005,100.092,0.0000000
17.69,196.03,14.005,100.092,-0.0003206
17.74,196.53,14.005,100.092,-0.0000459
17.79,197.03,14.005,100.092,0.0000000
17.84,197.53,14.005,100.092,-0.0003209
17.89,198.03,14.005,100.092,-0.0006419
17.94,198.53,14.005,100.091,-0.0000917
17.99,199.03,14.005,100.091,-0.0000917
18.04,199.53,14.005,100.091,-0.0005505
18.09,200.03,14.004,100.091,-0.0003213
18.14,200.53,14.004,100.091,-0.0002293
18.19,201.031,14.004,100.09,-0.0003670
18.24,201.531,14.004,100.09,-0.0007336
18.29,202.031,14.004,100.09,-0.0002291
18.34,202.531,14.004,100.09,-0.0004582
18.39,203.031,14.004,100.09,-0.0005498
18.44,203.531,14.004,100.09,0.0000916
18.49,204.031,14.004,100.09,-0.0006410
18.54,204.531,14.004,100.089,-0.0007326
18.59,205.031,14.004,100.089,-0.0006871
18.64,205.531,14.004,100.089,0.0001374
18.69,206.031,14.004,100.089,-0.0007333
18.74,206.532,14.004,100.089,-0.0007333
18.79,207.032,14.004,100.088,0.0001375
18.84,207.532,14.004,100.088,0.0000917
18.89,208.032,14.004,100.088,-0.0003666
18.94,208.532,14.004,100.088,-0.0000916
18.99,209.032,14.004,100.088,-0.0004124
19.04,209.532,14.004,100.088,-0.0005038
19.09,210.032,14.004,100.088,-0.0004580
19.14,210.532,14.004,100.088,-0.0001374
19.19,211.032,14.004,100.087,-0.0005956
19.24,211.532,14.004,100.087,-0.0005039
19.29,212.033,14.004,100.087,-0.0001374
19.34,212.533,14.004,100.087,-0.0002289
19.39,213.033,14.004,100.087,-0.0006416
19.44,213.533,14.004,100.086,-0.0005957
19.49,214.033,14.004,100.086,-0.0004580
19.54,214.533,14.004,100.086,-0.0005954
19.59,215.033,14.004,100.086,-0.0003206
19.64,215.533,14.004,100.086,0.0001374
19.69,216.033,14.004,100.086,-0.0003206
19.74,216.533,14.004,100.085,-0.0002290
19.79,217.033,14.004,100.085,-0.0000917
19.84,217.533,14.004,100.085,-0.0001375
19.89,218.034,14.004,100.085,-0.0004586
19.94,218.534,14.004,100.085,-0.0000917
19.99,219.034,14.004,100.085,-0.0002752
20.04,219.534,14.004,100.085,-0.0006874
20.09,220.034,14.004,100.084,-0.0003665
20.14,220.534,14.004,100.084,0.0000000
20.19,221.034,14.004,100.084,-0.0004577
20.24,221.534,14.004,100.084,-0.0004579
20.29,222.034,14.003,100.084,-0.0002290
20.34,222.534,14.003,100.084,-0.0002290
20.39,223.034,14.003,100.083,-0.0004579
20.44,223.535,14.003,100.083,-0.0000915
20.49,224.035,14.003,100.083,-0.0003205
20.54,224.535,14.003,100.083,-0.0001832
20.59,225.035,14.003,100.083,-0.0003207
20.64,225.535,14.003,100.083,-0.0003206
20.69,226.035,14.003,100.082,-0.0004121
20.74,226.535,14.003,100.082,-0.0006873
20.79,227.035,14.003,100.082,-0.0003208
20.84,227.535,14.003,100.082,-0.0005499
20.89,228.035,14.003,100.082,-0.0003209
20.94,228.535,14.003,100.082,0.0000000
20.99,229.036,14.003,100.081,-0.0007798
21.04,229.536,14.003,100.081,-0.0010089
21.09,230.036,14.003,100.081,-0.0002293
21.14,230.536,14.003,100.081,-0.0002750
21.19,231.036,14.003,100.08,-0.0006877
21.24,231.536,14.003,100.08,-0.0000917
21.29,232.036,14.003,100.08,-0.0006416
21.34,232.536,14.003,100.08,-0.0010996
21.39,233.036,14.003,100.08,-0.0006413
21.44,233.536,14.003,100.079,-0.0001373
21.49,234.036,14.003,100.079,-0.0000916
21.54,234.537,14.003,100.079,-0.0004579
21.59,235.037,14.003,100.079,-0.0002746
21.64,235.537,14.003,100.079,-0.0002288
21.69,236.037,14.003,100.078,-0.0004577
21.74,236.537,14.003,100.078,-0.0003204
21.79,237.037,14.003,100.078,-0.0002289
21.84,237.537,14.003,100.078,-0.0004577
21.89,238.037,14.003,100.077,-0.0006868
21.94,238.537,14.003,100.077,-0.0000916
21.99,239.037,14.003,100.077,-0.0011455
22.04,239.537,14.002,100.077,-0.0008706
22.09,240.038,14.002,100.076,-0.0001375
22.14,240.538,14.002,100.076,-0.0006874
22.19,241.038,14.002,100.076,-0.0004583
22.24,241.538,14.002,100.076,-0.0002751
22.29,242.038,14.002,100.076,-0.0005961
22.34,242.538,14.002,100.075,-0.0005960
22.39,243.038,14.002,100.075,-0.0005498
22.44,243.538,14.002,100.075,-0.0005956
22.49,244.038,14.002,100.075,-0.0003207
22.54,244.538,14.002,100.074,-0.0005039
22.59,245.038,14.002,100.074,-0.0005952
22.64,245.538,14.002,100.074,-0.0014191
22.69,246.039,14.002,100.074,-0.0005955
22.74,246.539,14.002,100.073,-0.0006412
22.79,247.039,14.002,100.073,-0.0003663
22.84,247.539,14.002,100.073,-0.0006407
22.89,248.039,14.002,100.072,-0.0003205
22.94,248.539,14.002,100.072,-0.0004580
22.99,249.039,14.002,100.072,-0.0002750
23.04,249.539,14.002,100.072,-0.0003207
23.09,250.039,14.002,100.072,-0.0006873
23.14,250.539,14.002,100.071,-0.0004582
23.19,251.039,14.002,100.071,-0.0005952
23.24,251.54,14.002,100.071,-0.0003205
23.29,252.04,14.002,100.071,-0.0005951
23.34,252.54,14.002,100.07,-0.0006869
23.39,253.04,14.002,100.07,-0.0000916
23.44,253.54,14.002,100.07,-0.0002751
23.49,254.04,14.002,100.07,-0.0003669
23.54,254.54,14.001,100.069,-0.0006418
23.59,255.04,14.001,100.069,-0.0004584
23.64,255.54,14.001,100.069,-0.0000917
23.69,256.04,14.001,100.069,-0.0003209
23.74,256.54,14.001,100.068,-0.0004581
23.79,257.041,14.001,100.068,-0.0007334
23.84,257.541,14.001,100.068,-0.0005955
23.89,258.041,14.001,100.068,-0.0004581
23.94,258.541,14.001,100.067,-0.0005956
23.99,259.041,14.001,100.067,-0.0004123
24.04,259.541,14.001,100.067,-0.0005037
24.09,260.041,14.001,100.066,-0.0003661
24.14,260.541,14.001,100.066,-0.0009154
24.19,261.041,14.001,100.066,-0.0007333
24.24,261.541,14.001,100.066,-0.0002290
24.29,262.041,14.001,100.065,-0.0012369
24.34,262.542,14.001,100.065,-0.0005497
24.39,263.042,14.001,100.065,-0.0000916
24.44,263.542,14.001,100.065,-0.0005039
24.49,264.042,14.001,100.064,-0.0008707
24.54,264.542,14.001,100.064,-0.0005503
24.59,265.042,14.001,100.064,-0.0005956
24.64,265.542,14.001,100.063,-0.0006415
24.69,266.042,14.001,100.063,-0.0009162
24.74,266.542,14.001,100.063,-0.0005498
24.79,267.042,14.001,100.062,-0.0004581
24.84,267.542,14,100.062,-0.0004581
24.89,268.043,14,100.062,0.0000000
24.94,268.543,14,100.062,-0.0006864
24.99,269.043,14,100.061,-0.0007315
25.04,269.543,14,100.061,-0.0004576
25.09,270.043,14,100.061,-0.0006865
25.14,270.543,14,100.06,-0.0007326
25.19,271.043,14,100.06,-0.0004121
25.24,271.543,14,100.06,-0.0004583
25.29,272.043,14,100.059,-0.0007333
25.34,272.543,14,100.059,-0.0008711
25.39,273.043,14,100.058,-0.0006416
25.44,273.543,14,100.058,-0.0003666
25.49,274.044,14,100.058,-0.0007335
25.54,274.544,14,100.058,-0.0005507
25.59,275.044,14,100.057,-0.0005043
25.64,275.544,14,100.057,-0.0003208
25.69,276.044,14,100.056,-0.0008704
25.74,276.544,14,100.056,-0.0004579
25.79,277.044,14,100.056,-0.0005491
25.84,277.544,13.999,100.055,-0.0009621
25.89,278.044,13.999,100.055,-0.0002289
25.94,278.544,13.999,100.055,-0.0002288
25.99,279.044,13.999,100.054,-0.0014660
26.04,279.545,13.999,100.054,-0.0009161
26.09,280.045,13.999,100.054,-0.0002291
26.14,280.545,13.999,100.053,-0.0010084
26.19,281.045,13.999,100.053,-0.0005955
26.24,281.545,13.999,100.052,-0.0006410
26.29,282.045,13.999,100.052,-0.0007784
26.34,282.545,13.999,100.052,-0.0010537
26.39,283.045,13.999,100.052,-0.0004580
26.44,283.545,13.999,100.051,-0.0006868
26.49,284.045,13.999,100.051,-0.0006872
26.54,284.545,13.999,100.05,-0.0010077
26.59,285.046,13.999,100.05,-0.0007326
26.64,285.546,13.999,100.049,-0.0011453
26.69,286.046,13.999,100.049,-0.0005498
26.74,286.546,13.999,100.049,-0.0007332
26.79,287.046,13.999,100.048,-0.0007794
26.84,287.546,13.998,100.048,-0.0016037
26.89,288.046,13.998,100.048,-0.0006876
26.94,288.546,13.998,100.047,-0.0005956
27,289.046,13.998,100.047,-0.0008246
27.05,289.546,13.998,100.046,-0.0008242
27.1,290.046,13.998,100.046,-0.0008245
27.15,290.547,13.998,100.046,-0.0009615
27.2,291.047,13.998,100.045,-0.0011458
27.25,291.547,13.998,100.045,-0.0006410
27.3,292.047,13.998,100.045,-0.0012825
27.35,292.547,13.998,100.044,-0.0009168
27.4,293.047,13.998,100.044,-0.0005957
27.45,293.547,13.998,100.043,-0.0005496
27.5,294.047,13.998,100.043,-0.0011922
27.55,294.547,13.998,100.043,-0.0007336
27.6,295.047,13.998,100.042,-0.0005955
27.65,295.547,13.998,100.042,-0.0008705
27.7,296.048,13.998,100.041,-0.0009162
27.75,296.548,13.997,100.041,-0.0010983
27.8,297.048,13.997,100.04,-0.0011905
27.85,297.548,13.997,100.04,-0.0010527
27.9,298.048,13.997,100.039,-0.0009610
27.95,298.548,13.997,100.039,-0.0013278
28,299.048,13.997,100.038,-0.0008700
28.05,299.548,13.997,100.038,-0.0009158
28.1,300.048,13.997,100.038,-0.0009158
28.15,300.548,13.997,100.037,-0.0010523
28.2,301.048,13.997,100.036,-0.0010527
28.25,301.548,13.997,100.036,-0.0008237
28.3,302.049,13.997,100.035,-0.0005952
28.35,302.549,13.997,100.035,-0.0012825
28.4,303.049,13.997,100.034,-0.0010535
28.45,303.549,13.997,100.034,-0.0005497
28.5,304.049,13.996,100.034,-0.0007789
28.55,304.549,13.996,100.033,-0.0009623
28.6,305.049,13.996,100.033,-0.0012825
28.65,305.549,13.996,100.032,-0.0010531
28.7,306.049,13.996,100.032,-0.0013744
28.75,306.549,13.996,100.032,-0.0008247
28.8,307.049,13.996,100.031,-0.0011447
28.85,307.55,13.996,100.031,-0.0007791
28.9,308.05,13.996,100.03,-0.0011909
28.95,308.55,13.996,100.03,-0.0010073
29,309.05,13.996,100.029,-0.0014194
29.05,309.55,13.996,100.029,-0.0011440
29.1,310.05,13.996,100.028,-0.0008692
29.15,310.55,13.996,100.028,-0.0007319
29.2,311.05,13.996,100.027,-0.0008239
29.25,311.55,13.996,100.027,-0.0005952
29.3,312.05,13.995,100.026,-0.0009162
29.35,312.55,13.995,100.026,-0.0011000
29.4,313.051,13.995,100.025,-0.0010083
29.45,313.551,13.995,100.025,-0.0009623
29.5,314.051,13.995,100.024,-0.0007788
29.55,314.551,13.995,100.024,-0.0009164
29.6,315.051,13.995,100.023,-0.0008713
29.65,315.551,13.995,100.023,-0.0010539
29.7,316.051,13.995,100.022,-0.0009166
29.75,316.551,13.995,100.022,-0.0011453
29.8,317.051,13.995,100.021,-0.0010535
29.85,317.551,13.995,100.02,-0.0009158
29.9,318.051,13.995,100.02,-0.0010531
29.95,318.552,13.994,100.019,-0.0011898
30,319.052,13.994,100.019,-0.0010989
30.05,319.552,13.994,100.018,-0.0009615
30.1,320.052,13.994,100.018,-0.0014194
30.15,320.552,13.994,100.017,-0.0015118
30.2,321.052,13.994,100.017,-0.0012816
30.25,321.552,13.994,100.016,-0.0008700
30.3,322.052,13.994,100.015,-0.0015102
30.35,322.552,13.994,100.015,-0.0017847
30.4,323.052,13.994,100.014,-0.0009615
30.45,323.552,13.994,100.014,-0.0012827
30.5,324.053,13.994,100.013,-0.0008700
30.55,324.553,13.994,100.013,-0.0004118
30.6,325.053,13.993,100.012,-0.0011441
30.65,325.553,13.993,100.012,-0.0014202
30.7,326.053,13.993,100.011,-0.0016484
30.75,326.553,13.993,100.011,-0.0014665
30.8,327.053,13.993,100.01,-0.0016957
30.85,327.553,13.993,100.009,-0.0012369
30.9,328.053,13.993,100.009,-0.0010999
30.95,328.553,13.993,100.008,-0.0011913
31,329.053,13.993,100.007,-0.0014202
31.05,329.553,13.993,100.007,-0.0008700
31.1,330.054,13.993,100.006,-0.0007784
31.15,330.554,13.993,100.006,-0.0012811
31.2,331.054,13.992,100.005,-0.0011439
31.25,331.554,13.992,100.005,-0.0014194
31.3,332.054,13.992,100.004,-0.0019231
31.35,332.554,13.992,100.003,-0.0012830
31.4,333.054,13.992,100.003,-0.0010531
31.45,333.554,13.992,100.002,-0.0016032
31.5,334.054,13.992,100.001,-0.0010537
31.55,334.554,13.992,100.001,-0.0009162
31.6,335.054,13.992,100,-0.0011453
31.65,335.555,13.992,100,-0.0013744
31.7,336.055,13.992,99.999,-0.0014660
31.75,336.555,13.992,99.998,-0.0016941
31.8,337.055,13.991,99.998,-0.0010531
31.85,337.555,13.991,99.997,-0.0010068
31.9,338.055,13.991,99.997,-0.0012816
31.95,338.555,13.991,99.996,-0.0019689
32,339.055,13.991,99.995,-0.0012821
32.05,339.555,13.991,99.994,-0.0011447
32.1,340.055,13.991,99.994,-0.0010985
32.15,340.555,13.991,99.993,-0.0016944
32.2,341.056,13.991,99.992,-0.0014644
32.25,341.556,13.991,99.992,-0.0014644
32.3,342.056,13.99,99.991,-0.0019679
32.35,342.556,13.99,99.99,-0.0013736
32.4,343.056,13.99,99.989,-0.0010531
32.45,343.556,13.99,99.988,-0.0017405
32.5,344.056,13.99,99.988,-0.0015568
32.55,344.556,13.99,99.987,-0.0014657
32.6,345.056,13.99,99.986,-0.0016026
32.65,345.556,13.99,99.985,-0.0015118
32.7,346.056,13.99,99.985,-0.0011447
32.75,346.557,13.99,99.984,-0.0017857
32.8,347.057,13.989,99.983,-0.0017851
32.85,347.557,13.989,99.982,-0.0014186
32.9,348.057,13.989,99.981,-0.0013731
32.95,348.557,13.989,99.981,-0.0018763
33,349.057,13.989,99.98,-0.0012814
33.05,349.557,13.989,99.979,-0.0015568
33.1,350.057,13.989,99.978,-0.0018773
33.15,350.557,13.989,99.977,-0.0016026
33.2,351.057,13.988,99.976,-0.0017867
33.25,351.557,13.988,99.976,-0.0017847
33.3,352.058,13.988,99.975,-0.0019699
33.35,352.558,13.988,99.974,-0.0016941
33.4,353.058,13.988,99.973,-0.0019689
33.45,353.558,13.988,99.972,-0.0021528
33.5,354.058,13.988,99.971,-0.0020147
33.55,354.558,13.988,99.97,-0.0020604
33.6,355.058,13.987,99.969,-0.0016941
33.65,355.558,13.987,99.968,-0.0022436
33.7,356.058,13.987,99.967,-0.0018773
33.75,356.558,13.987,99.966,-0.0019231
33.8,357.058,13.987,99.965,-0.0017847
33.85,357.558,13.987,99.964,-0.0019231
33.9,358.059,13.987,99.963,-0.0024703
33.95,358.559,13.986,99.962,-0.0021501
34,359.059,13.986,99.961,-0.0024249
34.05,359.559,13.986,99.96,-0.0023796
34.1,360.059,13.986,99.959,-0.0028372
34.15,360.559,13.986,99.957,-0.0025632
34.2,361.059,13.986,99.956,-0.0019245
34.25,361.559,13.986,99.955,-0.0020616
34.3,362.059,13.985,99.954,-0.0022894
34.35,362.559,13.985,99.953,-0.0019696
34.4,363.059,13.985,99.952,-0.0022894
34.45,363.56,13.985,99.951,-0.0020127
34.5,364.06,13.985,99.949,-0.0027915
34.55,364.56,13.985,99.948,-0.0026075
34.6,365.06,13.984,99.947,-0.0026080
34.65,365.56,13.984,99.945,-0.0028831
34.7,366.06,13.984,99.944,-0.0030197
34.75,366.56,13.984,99.943,-0.0027447
34.8,367.06,13.984,99.941,-0.0026557
34.85,367.56,13.983,99.94,-0.0030678
34.9,368.06,13.983,99.938,-0.0033896
34.95,368.56,13.983,99.937,-0.0028856
35,369.061,13.983,99.936,-0.0029773
35.05,369.561,13.983,99.934,-0.0030258
35.1,370.061,13.982,99.933,-0.0029314
35.15,370.561,13.982,99.931,-0.0028404
35.2,371.061,13.982,99.929,-0.0033437
35.25,371.561,13.982,99.928,-0.0033443
35.3,372.061,13.981,99.926,-0.0032997
35.35,372.561,13.981,99.925,-0.0033945
35.4,373.061,13.981,99.923,-0.0034404
35.45,373.561,13.981,99.921,-0.0035800
35.5,374.061,13.98,99.919,-0.0036272
35.55,374.562,13.98,99.917,-0.0040879
35.6,375.062,13.98,99.916,-0.0042233
35.65,375.562,13.98,99.914,-0.0038073
35.7,376.062,13.979,99.912,-0.0035714
35.75,376.562,13.979,99.91,-0.0040751
35.8,377.062,13.979,99.908,-0.0043900
35.85,377.562,13.979,99.905,-0.0045720
35.9,378.062,13.978,99.903,-0.0041141
35.95,378.562,13.978,99.901,-0.0046618
36,379.062,13.978,99.899,-0.0048886
36.05,379.562,13.977,99.896,-0.0050274
36.1,380.063,13.977,99.894,-0.0050274
36.15,380.563,13.977,99.891,-0.0050731
36.2,381.063,13.976,99.889,-0.0047989
36.25,381.563,13.976,99.886,-0.0052598
36.3,382.063,13.976,99.884,-0.0057182
36.35,382.563,13.975,99.881,-0.0050302
36.4,383.063,13.975,99.878,-0.0058076
36.45,383.563,13.974,99.875,-0.0059023
36.5,384.063,13.974,99.872,-0.0058097
36.55,384.563,13.974,99.869,-0.0059469
36.6,385.063,13.973,99.866,-0.0061299
36.65,385.563,13.973,99.863,-0.0063152
36.7,386.064,13.972,99.86,-0.0068618
36.75,386.564,13.972,99.856,-0.0071860
36.8,387.064,13.971,99.853,-0.0068706
36.85,387.564,13.971,99.849,-0.0069572
36.9,388.064,13.97,99.846,-0.0075522
36.95,388.564,13.97,99.842,-0.0073691
37,389.064,13.969,99.838,-0.0075051
37.05,389.564,13.969,99.834,-0.0078254
37.1,390.064,13.968,99.83,-0.0084660
37.15,390.564,13.967,99.826,-0.0084188
37.2,391.064,13.967,99.822,-0.0089237
37.25,391.565,13.966,99.817,-0.0096031
37.3,392.065,13.966,99.812,-0.0096541
37.35,392.565,13.965,99.808,-0.0097034
37.4,393.065,13.964,99.803,-0.0099268
37.45,393.565,13.963,99.798,-0.0104720
37.5,394.065,13.963,99.792,-0.0107960
37.55,394.565,13.962,99.787,-0.0105254
37.6,395.065,13.961,99.781,-0.0115237
37.65,395.565,13.96,99.776,-0.0117002
37.7,396.065,13.96,99.77,-0.0119788
37.75,396.565,13.959,99.763,-0.0130375
37.8,397.066,13.958,99.757,-0.0126670
37.85,397.566,13.957,99.75,-0.0133577
37.9,398.066,13.956,99.744,-0.0140568
37.95,398.566,13.955,99.737,-0.0143773
38,399.066,13.954,99.729,-0.0149349
38.05,399.566,13.953,99.722,-0.0153762
38.1,400.066,13.952,99.714,-0.0158425
38.15,400.566,13.951,99.706,-0.0161541
38.2,401.066,13.949,99.698,-0.0167490
38.25,401.566,13.948,99.689,-0.0173440
38.3,402.066,13.947,99.681,-0.0171940
38.35,402.567,13.946,99.672,-0.0179780
38.4,403.067,13.945,99.663,-0.0184778
38.45,403.567,13.943,99.654,-0.0185338
38.5,404.067,13.942,99.644,-0.0190829
38.55,404.567,13.941,99.635,-0.0198187
38.6,405.067,13.939,99.625,-0.0201613
38.65,405.567,13.938,99.614,-0.0208867
38.7,406.067,13.936,99.604,-0.0211003
38.75,406.567,13.935,99.593,-0.0219660
38.8,407.067,13.933,99.582,-0.0225192
38.85,407.567,13.932,99.571,-0.0226648
38.9,408.068,13.93,99.559,-0.0237179
38.95,408.568,13.928,99.547,-0.0241758
39,409.068,13.927,99.535,-0.0246337
39.05,409.568,13.925,99.523,-0.0254121
39.1,410.068,13.923,99.51,-0.0257784
39.15,410.568,13.921,99.497,-0.0262724
39.2,411.068,13.919,99.483,-0.0276099
39.25,411.568,13.918,99.469,-0.0280678
39.3,412.068,13.916,99.455,-0.0284799
39.35,412.568,13.914,99.441,-0.0294198
39.4,413.068,13.911,99.426,-0.0302490
39.45,413.568,13.909,99.41,-0.0310269
39.5,414.069,13.907,99.395,-0.0320337
39.55,414.569,13.905,99.378,-0.0329369
39.6,415.069,13.902,99.362,-0.0336811
39.65,415.569,13.9,99.344,-0.0345048
39.7,416.069,13.898,99.327,-0.0358189
39.75,416.569,13.895,99.309,-0.0364526
39.8,417.069,13.892,99.29,-0.0377747
39.85,417.569,13.89,99.271,-0.0387220
39.9,418.069,13.887,99.251,-0.0396978
39.95,418.569,13.884,99.231,-0.0408509
40,419.069,13.881,99.211,-0.0421621
40.05,419.57,13.878,99.189,-0.0433828
40.1,420.07,13.875,99.167,-0.0442766
40.15,420.57,13.872,99.145,-0.0455128
40.2,421.07,13.869,99.122,-0.0470438
40.25,421.57,13.866,99.097,-0.0484535
40.3,422.07,13.862,99.073,-0.0497987
40.35,422.57,13.858,99.047,-0.0517383
40.4,423.07,13.855,99.021,-0.0534309
40.45,423.57,13.851,98.994,-0.0552150
40.5,424.07,13.847,98.966,-0.0564958
40.55,424.57,13.843,98.937,-0.0585466
40.6,425.071,13.839,98.907,-0.0607280
40.65,425.571,13.835,98.877,-0.0622486
40.7,426.071,13.83,98.845,-0.0641589
40.75,426.571,13.826,98.812,-0.0665599
40.8,427.071,13.821,98.778,-0.0690555
40.85,427.571,13.816,98.743,-0.0718012
40.9,428.071,13.811,98.706,-0.0758464
40.95,428.571,13.805,98.668,-0.0774725
41,429.071,13.8,98.628,-0.0827381
41.05,429.571,13.794,98.583,-0.0925027
41.1,430.071,13.787,98.536,-0.1022790
41.15,430.572,13.78,98.486,-0.1029650
41.2,431.072,13.773,98.434,-0.1092810
41.25,431.572,13.765,98.377,-0.1167160
41.3,432.072,13.757,98.32,-0.1184090
41.35,432.572,13.748,98.258,-0.1264860
41.4,433.072,13.739,98.194,-0.1374810
41.45,433.572,13.73,98.127,-0.1313820
41.5,434.072,13.72,98.056,-0.1477020
41.55,434.572,13.71,97.983,-0.1442430
41.6,435.072,13.699,97.908,-0.1506410
41.65,435.572,13.688,97.831,-0.1652010
41.7,436.073,13.677,97.748,-0.1635990
41.75,436.573,13.665,97.663,-0.1766430
41.8,437.073,13.652,97.574,-0.1803090
41.85,437.573,13.64,97.483,-0.1831660
41.9,438.073,13.626,97.386,-0.2035850
41.95,438.573,13.612,97.284,-0.2019850
42,439.073,13.597,97.178,-0.2219680
42.05,439.573,13.581,97.062,-0.2329830
42.1,440.073,13.564,96.944,-0.2342270
42.15,440.573,13.547,96.823,-0.2535200
42.2,441.073,13.529,96.691,-0.2779660
42.25,441.573,13.509,96.547,-0.2980770
42.3,442.074,13.487,96.395,-0.3112050
42.35,442.574,13.465,96.233,-0.3309810
42.4,443.074,13.441,96.063,-0.3554190
42.45,443.574,13.416,95.883,-0.3724300
42.5,444.074,13.388,95.688,-0.4185330
42.55,444.574,13.358,95.473,-0.4407210
42.6,445.074,13.327,95.247,-0.4628180
42.65,445.574,13.293,95.009,-0.4768110
42.7,446.074,13.259,94.763,-0.5092070
42.75,446.574,13.225,94.519,-0.5020160
42.8,447.074,13.188,94.252,-0.5609430
42.85,447.575,13.147,93.961,-0.5745640
42.9,448.075,13.105,93.664,-0.6110490
42.95,448.575,13.061,93.349,-0.6463720
43,449.075,13.014,93.009,-0.7213930
43.05,449.575,12.963,92.649,-0.7053900
43.1,450.075,12.911,92.277,-0.7665360
43.15,450.575,12.86,91.913,-0.7370770
43.2,451.075,12.811,91.562,-0.6974380
43.25,451.575,12.759,91.189,-0.7499990
43.3,452.075,12.706,90.811,-0.8212980
43.35,452.575,12.646,90.385,-0.9070590
43.4,453.076,12.581,89.917,-0.9340760
43.45,453.576,12.516,89.45,-0.9556070
43.5,454.076,12.445,88.943,-0.9940830
43.55,454.576,12.376,88.449,-1.02155
43.6,455.076,12.305,87.943,-1.01272
43.65,455.576,12.217,87.314,-1.32485
43.7,456.076,12.127,86.67,-1.31912
43.75,456.576,12.03,85.979,-1.43955
43.8,457.076,11.932,85.28,-1.14793
43.85,457.576,11.854,84.719,-1.18138
43.9,458.076,11.764,84.08,-1.38897
43.95,458.577,11.661,83.338,-1.57444
44,459.077,11.548,82.535,-1.62766
44.05,459.577,11.438,81.749,-1.53709
44.1,460.077,11.326,80.948,-1.67752
44.15,460.577,11.214,80.146,-1.52834
44.2,461.077,11.098,79.321,-1.78254
44.25,461.577,10.973,78.424,-1.91491
44.3,462.077,10.836,77.442,-1.90989
44.35,462.577,10.711,76.553,-1.91241
44.4,463.077,10.574,75.571,-1.98719
44.45,463.577,10.434,74.571,-2.07957
44.5,464.078,10.298,73.6,-1.94241
44.55,464.578,10.147,72.518,-2.44353
44.6,465.078,9.981,71.332,-2.35522
44.65,465.578,9.804,70.067,-2.67264
44.7,466.078,9.624,68.78,-2.38919
44.75,466.578,9.447,67.521,-2.59391
44.8,467.078,9.262,66.198,-2.62192
44.85,467.578,9.077,64.875,-2.57436
44.9,468.078,8.882,63.48,-2.9203
44.95,468.578,8.682,62.05,-3.12404
45,469.078,8.459,60.457,-3.15244
45.05,469.578,8.234,58.85,-3.2053
45.1,470.079,8.009,57.243,-3.22147
45.15,470.579,7.798,55.729,-3.0375
45.2,471.079,7.56,54.034,-3.70691
45.25,471.579,7.307,52.221,-3.53019
45.3,472.079,7.061,50.463,-3.47409
45.35,472.579,6.817,48.725,-4.1012
45.4,473.079,6.553,46.833,-3.64255
45.45,473.579,6.29,44.953,-3.79352
45.5,474.079,6.015,42.991,-3.79435
45.55,474.579,5.735,40.99,-4.08803
45.6,475.079,5.446,38.925,-3.90344
45.65,475.58,5.161,36.885,-4.29768
45.7,476.08,4.874,34.837,-4.01882
45.75,476.58,4.589,32.8,-4.12402
45.8,477.08,4.319,30.869,-3.94891
45.85,477.58,4.035,28.837,-3.99857
45.9,478.08,3.748,26.786,-3.83868
45.95,478.58,3.485,24.907,-3.8427
46,479.08,3.21,22.941,-3.9543
46.05,479.58,2.931,20.945,-4.19437
46.1,480.08,2.654,18.971,-3.88962
46.15,480.58,2.383,17.032,-3.8433
46.2,481.081,2.12,15.155,-3.63973
46.25,481.581,1.875,13.399,-3.58966
46.3,482.081,1.629,11.641,-3.36599
46.35,482.581,1.397,9.987,-3.1752
46.4,483.081,1.182,8.445,-2.92823
46.45,483.581,0.9890000,7.068,-2.67805
46.5,484.081,0.8090000,5.78,-2.39238
46.55,484.581,0.6520000,4.661,-2.13605
46.6,485.081,0.5100000,3.644,-1.8587
46.64,485.581,0.3910000,2.796,-1.57175
46.69,486.081,0.2920000,2.085,-1.31686
46.74,486.582,0.2080000,1.49,-1.03084
46.79,487.082,0.1460000,1.046,-0.7745830
46.84,487.582,0.1000000,0.7130000,-0.5472280
46.89,488.082,0.0690000,0.4910000,-0.3627190
46.94,488.582,0.0480000,0.3440000,-0.2306390
46.99,489.082,0.0360000,0.2540000,-0.1347810
47.04,489.582,0.0290000,0.2060000,-0.0685129
47.09,490.082,0.0260000,0.1830000,-0.0320961
47.14,490.582,0.0230000,0.1660000,-0.0341678
47.19,491.082,0.0210000,0.1490000,-0.0314807
47.24,491.582,0.0190000,0.1340000,-0.0269158
47.29,492.083,0.0170000,0.1220000,-0.0217524
47.34,492.583,0.0160000,0.1130000,-0.0171037
47.4,493.083,0.0150000,0.1050000,-0.0134964
47.45,493.583,0.0140000,0.0990000,-0.0104779
47.5,494.083,0.0130000,0.0950000,-0.0081344
47.55,494.583,0.0130000,0.0910000,-0.0061775
47.6,495.083,0.0120000,0.0880000,-0.0045290
47.65,495.583,0.0120000,0.0860000,-0.0038350
47.7,496.083,0.0120000,0.0850000,-0.0029009
47.75,496.583,0.0120000,0.0830000,-0.0020713
47.8,497.083,0.0120000,0.0830000,-0.0013737
47.85,497.583,0.0110000,0.0820000,-0.0012941
47.9,498.084,0.0110000,0.0810000,-0.0010610
47.95,498.584,0.0110000,0.0810000,-0.0008693
48,499.084,0.0110000,0.0800000,-0.0006345
48.05,499.584,0.0110000,0.0800000,-0.0002414
48.1,500.084,0.0110000,0.0800000,0.0000198
48.15,500.584,0.0110000,0.0800000,0.0000856
48.2,501.084,0.0110000,0.0800000,-0.0002217
48.25,501.584,0.0110000,0.0800000,0.0003249
48.3,502.084,0.0110000,0.0800000,0.0001832
48.35,502.584,0.0110000,0.0800000,-0.0000506
48.4,503.084,0.0110000,0.0800000,0.0005195
48.45,503.585,0.0110000,0.0800000,-0.0001722
48.5,504.085,0.0110000,0.0800000,0.0001611
48.55,504.585,0.0110000,0.0800000,0.0003278
48.6,505.085,0.0110000,0.0800000,0.0002386
48.65,505.585,0.0110000,0.0800000,-0.0001641
48.7,506.085,0.0110000,0.0800000,0.0002427
48.75,506.585,0.0110000,0.0800000,-0.0000176
48.8,507.085,0.0110000,0.0810000,-0.0000531
48.85,507.585,0.0110000,0.0800000,-0.0002312
48.9,508.085,0.0110000,0.0810000,0.0002379
48.95,508.585,0.0110000,0.0810000,-0.0000758
49,509.086,0.0110000,0.0810000,-0.0002827
49.05,509.586,0.0110000,0.0810000,0.0002356
49.1,510.086,0.0110000,0.0810000,-0.0000930
49.15,510.586,0.0110000,0.0810000,0.0002484
49.2,511.086,0.0110000,0.0810000,0.0002175
49.25,511.586,0.0110000,0.0810000,-0.0000823
49.3,512.086,0.0110000,0.0810000,0.0003103
49.35,512.586,0.0110000,0.0810000,-0.0000099
49.4,513.086,0.0110000,0.0810000,0.0001341
49.45,513.586,0.0110000,0.0810000,-0.0001305
49.5,514.086,0.0110000,0.0810000,0.0001659
49.55,514.587,0.0110000,0.0810000,-0.0002147
49.6,515.087,0.0110000,0.0810000,0.0002860
49.65,515.587,0.0110000,0.0810000,0.0001865
49.7,516.087,0.0110000,0.0810000,0.0002784
49.75,516.587,0.0110000,0.0820000,0.0004327
49.8,517.087,0.0110000,0.0820000,0.0001179
49.85,517.587,0.0110000,0.0820000,-0.0001429
49.9,518.087,0.0110000,0.0820000,0.0005701
49.95,518.587,0.0110000,0.0820000,0.0005373
50,519.087,0.0120000,0.0820000,0.0000089
50.05,519.587,0.0120000,0.0820000,0.0002646
50.1,520.088,0.0120000,0.0820000,-0.0000077
50.15,520.588,0.0120000,0.0820000,-0.0002273
50.2,521.088,0.0120000,0.0820000,0.0000141
50.25,521.588,0.0120000,0.0820000,0.0003149
50.3,522.088,0.0120000,0.0820000,0.0001793
50.35,522.588,0.0120000,0.0830000,0.0002548
50.4,523.088,0.0120000,0.0830000,0.0008283
50.45,523.588,0.0120000,0.0830000,0.0000195
50.5,524.088,0.0120000,0.0830000,-0.0001326
50.55,524.588,0.0120000,0.0830000,-0.0002259
50.6,525.088,0.0120000,0.0830000,0.0001772
50.65,525.588,0.0120000,0.0830000,-0.0000430
50.7,526.089,0.0120000,0.0830000,-0.0003239
50.75,526.589,0.0120000,0.0830000,0.0000384
50.8,527.089,0.0120000,0.0830000,-0.0000711
50.85,527.589,0.0120000,0.0830000,0.0002387
50.9,528.089,0.0120000,0.0830000,0.0000707
50.95,528.589,0.0120000,0.0830000,0.0001450
51,529.089,0.0120000,0.0830000,0.0002435
51.05,529.589,0.0120000,0.0830000,0.0002007
51.1,530.089,0.0120000,0.0830000,0.0002367
51.15,530.589,0.0120000,0.0830000,0.0000272
51.2,531.089,0.0120000,0.0830000,-0.0002752
51.25,531.59,0.0120000,0.0840000,0.0002535
51.3,532.09,0.0120000,0.0840000,0.0003579
51.35,532.59,0.0120000,0.0840000,0.0001325
51.4,533.09,0.0120000,0.0840000,-0.0000867
51.45,533.59,0.0120000,0.0840000,0.0001811
51.5,534.09,0.0120000,0.0840000,-0.0000601
51.55,534.59,0.0120000,0.0840000,0.0000218
51.6,535.09,0.0120000,0.0840000,0.0002036
51.65,535.59,0.0120000,0.0840000,0.0001234
51.7,536.09,0.0120000,0.0840000,0.0002811
51.75,536.59,0.0120000,0.0840000,0.0002352
51.8,537.091,0.0120000,0.0840000,0.0001867
51.85,537.591,0.0120000,0.0840000,0.0004026
51.9,538.091,0.0120000,0.0840000,0.0002109
51.95,538.591,0.0120000,0.0840000,0.0000986
52,539.091,0.0120000,0.0840000,0.0000283
52.05,539.591,0.0120000,0.0840000,0.0000648
52.1,540.091,0.0120000,0.0850000,0.0003763
52.15,540.591,0.0120000,0.0850000,0.0005056
52.2,541.091,0.0120000,0.0850000,-0.0000172
52.25,541.591,0.0120000,0.0850000,0.0002559
52.3,542.091,0.0120000,0.0850000,0.0000678
52.35,542.592,0.0120000,0.0850000,0.0003201
52.4,543.092,0.0120000,0.0850000,0.0001850
52.45,543.592,0.0120000,0.0850000,0.0000915
52.5,544.092,0.0120000,0.0850000,0.0002741
52.55,544.592,0.0120000,0.0850000,0.0001622
52.6,545.092,0.0120000,0.0850000,-0.0001335
52.65,545.592,0.0120000,0.0850000,0.0001446
52.7,546.092,0.0120000,0.0850000,0.0004851
52.75,546.592,0.0120000,0.0860000,0.0003842
52.8,547.092,0.0120000,0.0860000,0.0000491
52.85,547.592,0.0120000,0.0860000,0.0003132
52.9,548.093,0.0120000,0.0860000,0.0002092
52.95,548.593,0.0120000,0.0860000,0.0002606
53,549.093,0.0120000,0.0860000,0.0001012
53.05,549.593,0.0120000,0.0860000,0.0003217
53.1,550.093,0.0120000,0.0860000,0.0001537
53.15,550.593,0.0120000,0.0860000,-0.0005542
53.2,551.093,0.0120000,0.0860000,0.0001610
53.25,551.593,0.0120000,0.0860000,-0.0001817
53.3,552.093,0.0120000,0.0860000,-0.0001546
53.35,552.593,0.0120000,0.0860000,-0.0000190
53.4,553.093,0.0120000,0.0860000,0.0002443
53.45,553.593,0.0120000,0.0860000,0.0001248
53.5,554.094,0.0120000,0.0860000,-0.0000346
53.55,554.594,0.0120000,0.0860000,-0.0001172
53.6,555.094,0.0120000,0.0860000,0.0000711
53.65,555.594,0.0120000,0.0860000,-0.0000695
53.7,556.094,0.0120000,0.0860000,0.0000363
53.75,556.594,0.0120000,0.0860000,0.0000682
53.8,557.094,0.0120000,0.0870000,0.0000291
53.85,557.594,0.0120000,0.0870000,0.0000146
53.9,558.094,0.0120000,0.0870000,0.0002508
53.95,558.594,0.0120000,0.0870000,-0.0001388
54,559.094,0.0120000,0.0870000,-0.0002151
54.05,559.595,0.0120000,0.0870000,0.0001243
54.1,560.095,0.0120000,0.0870000,-0.0002596
54.15,560.595,0.0120000,0.0870000,-0.0001846
54.2,561.095,0.0120000,0.0870000,0.0003870
54.25,561.595,0.0120000,0.0870000,0.0006417
54.3,562.095,0.0120000,0.0870000,0.0003112
54.35,562.595,0.0120000,0.0870000,0.0001225
54.4,563.095,0.0120000,0.0870000,-0.0001657
54.45,563.595,0.0120000,0.0870000,0.0001164
54.5,564.095,0.0120000,0.0870000,0.0000299
54.55,564.595,0.0120000,0.0870000,-0.0000563
54.59,565.096,0.0120000,0.0870000,0.0001680
54.64,565.596,0.0120000,0.0870000,-0.0001011
54.69,566.096,0.0120000,0.0880000,0.0003438
54.74,566.596,0.0120000,0.0880000,0.0002035
54.79,567.096,0.0120000,0.0880000,0.0004541
54.84,567.596,0.0120000,0.0880000,-0.0001175
54.89,568.096,0.0120000,0.0880000,-0.0000411
54.94,568.596,0.0120000,0.0880000,-0.0000142
54.99,569.096,0.0120000,0.0880000,0.0005461
55.04,569.596,0.0120000,0.0880000,0.0003909
55.09,570.096,0.0120000,0.0880000,0.0003208
55.14,570.597,0.0120000,0.0880000,-0.0000108
55.19,571.097,0.0120000,0.0880000,0.0002911
55.24,571.597,0.0120000,0.0880000,0.0001675
55.29,572.097,0.0120000,0.0880000,0.0000759
55.34,572.597,0.0120000,0.0880000,0.0003829
55.39,573.097,0.0120000,0.0880000,0.0001371
55.44,573.597,0.0120000,0.0890000,0.0000307
55.49,574.097,0.0120000,0.0890000,0.0000581
55.54,574.597,0.0120000,0.0890000,-0.0000741
55.59,575.097,0.0120000,0.0890000,-0.0001587
55.64,575.597,0.0120000,0.0890000,0.0002278
55.69,576.098,0.0120000,0.0890000,0.0001915
55.74,576.598,0.0120000,0.0890000,-0.0001046
55.79,577.098,0.0120000,0.0890000,0.0000010
55.84,577.598,0.0120000,0.0890000,0.0005238
55.89,578.098,0.0120000,0.0890000,0.0000729
55.94,578.598,0.0120000,0.0890000,0.0000486
55.99,579.098,0.0120000,0.0890000,0.0003121
56.04,579.598,0.0120000,0.0890000,0.0003837
56.09,580.098,0.0120000,0.0890000,-0.0000432
56.14,580.598,0.0120000,0.0890000,0.0000723
56.19,581.098,0.0120000,0.0890000,0.0003444
56.24,581.598,0.0130000,0.0890000,0.0003819
56.29,582.099,0.0130000,0.0890000,0.0001751
56.34,582.599,0.0130000,0.0890000,0.0000623
56.39,583.099,0.0130000,0.0890000,-0.0000575
56.44,583.599,0.0130000,0.0890000,0.0001689
56.49,584.099,0.0130000,0.0890000,0.0002778
56.54,584.599,0.0130000,0.0900000,0.0001838
56.59,585.099,0.0130000,0.0900000,-0.0001304
56.64,585.599,0.0130000,0.0900000,0.0004820
56.69,586.099,0.0130000,0.0900000,0.0004276
56.74,586.599,0.0130000,0.0900000,0.0001447
56.79,587.099,0.0130000,0.0900000,0.0001174
56.84,587.6,0.0130000,0.0900000,0.0002078
56.89,588.1,0.0130000,0.0900000,0.0001205
56.94,588.6,0.0130000,0.0900000,-0.0000352
56.99,589.1,0.0130000,0.0910000,-0.0000167
57.04,589.6,0.0130000,0.0910000,0.0004031
57.08,590,0.0130000,0.0910000,0.0001753