File: R/rHDPE_App/app/www/Output/TGA/Condensed_Data/Resin17_1_.csv
1.25,30,11.771,100.054,-0.0007270
1.31,30.5001,11.772,100.055,0.0024659
1.37,31.0002,11.772,100.056,0.0038667
1.42,31.5003,11.772,100.057,-0.0003535
1.48,32.0004,11.772,100.058,0.0024549
1.53,32.5004,11.772,100.058,-0.0005974
1.58,33.0005,11.772,100.059,0.0007421
1.64,33.5006,11.772,100.059,0.0015757
1.69,34.0007,11.772,100.06,-0.0002452
1.75,34.5008,11.772,100.061,0.0033708
1.8,35.0009,11.772,100.062,0.0005358
1.85,35.501,11.772,100.062,0.0007773
1.91,36.0011,11.773,100.063,0.0027627
1.96,36.5012,11.773,100.063,0.0015005
2.01,37.0013,11.773,100.064,0.0000483
2.07,37.5013,11.773,100.065,0.0028001
2.12,38.0014,11.773,100.066,0.0014451
2.17,38.5015,11.773,100.066,0.0000481
2.22,39.0016,11.773,100.067,0.0012979
2.28,39.5017,11.773,100.067,0.0017273
2.33,40.0018,11.773,100.068,0.0011023
2.38,40.5019,11.773,100.069,0.0018198
2.43,41.002,11.773,100.07,0.0018653
2.48,41.5021,11.773,100.07,0.0017676
2.54,42.0021,11.773,100.071,0.0009068
2.59,42.5022,11.774,100.072,0.0016203
2.64,43.0023,11.774,100.073,0.0020950
2.69,43.5024,11.774,100.073,0.0019494
2.74,44.0025,11.774,100.074,0.0009502
2.8,44.5026,11.774,100.075,0.0013289
2.85,45.0027,11.774,100.075,0.0017549
2.9,45.5028,11.774,100.076,0.0012794
2.95,46.0029,11.774,100.077,0.0008047
3,46.5029,11.774,100.077,0.0014180
3.06,47.003,11.774,100.078,0.0016519
3.11,47.5031,11.774,100.079,0.0020281
3.16,48.0032,11.775,100.08,0.0013657
3.21,48.5033,11.775,100.081,0.0007058
3.26,49.0034,11.775,100.081,0.0018805
3.31,49.5035,11.775,100.082,0.0015500
3.36,50.0036,11.775,100.083,0.0014086
3.41,50.5037,11.775,100.084,0.0016886
3.46,51.0038,11.775,100.084,0.0014057
3.52,51.5038,11.775,100.085,0.0019664
3.57,52.0039,11.775,100.086,0.0015436
3.62,52.504,11.775,100.087,0.0015425
3.67,53.0041,11.775,100.088,0.0020083
3.72,53.5042,11.776,100.088,0.0007938
3.77,54.0043,11.776,100.089,0.0014462
3.82,54.5044,11.776,100.09,0.0016781
3.87,55.0045,11.776,100.091,0.0019092
3.93,55.5046,11.776,100.092,0.0021407
3.98,56.0046,11.776,100.092,0.0016277
4.03,56.5047,11.776,100.093,0.0015333
4.08,57.0048,11.776,100.094,0.0015327
4.13,57.5049,11.776,100.095,0.0011136
4.18,58.005,11.776,100.095,0.0015774
4.23,58.5051,11.776,100.096,0.0009275
4.28,59.0052,11.777,100.097,0.0016681
4.33,59.5053,11.777,100.097,0.0014818
4.38,60.0054,11.777,100.098,0.0016662
4.43,60.5054,11.777,100.099,0.0008784
4.48,61.0055,11.777,100.099,0.0017563
4.53,61.5056,11.777,100.1,0.0014325
4.58,62.0057,11.777,100.1,0.0015241
4.63,62.5058,11.777,100.101,0.0012464
4.68,63.0059,11.777,100.102,0.0014764
4.73,63.506,11.777,100.102,0.0011526
4.79,64.0061,11.777,100.103,0.0013364
4.84,64.5062,11.777,100.104,0.0013356
4.89,65.0063,11.777,100.104,0.0011971
4.94,65.5063,11.777,100.105,0.0011963
4.99,66.0064,11.778,100.106,0.0013801
5.04,66.5065,11.778,100.107,0.0010576
5.09,67.0066,11.778,100.107,0.0011958
5.14,67.5067,11.778,100.108,0.0010578
5.19,68.0068,11.778,100.108,0.0016536
5.24,68.5069,11.778,100.109,0.0012399
5.29,69.007,11.778,100.109,0.0010571
5.34,69.5071,11.778,100.11,0.0005051
5.39,70.0071,11.778,100.11,0.0012855
5.44,70.5072,11.778,100.111,0.0010563
5.49,71.0073,11.778,100.112,0.0010560
5.54,71.5074,11.778,100.112,0.0014232
5.59,72.0075,11.778,100.113,0.0009181
5.64,72.5076,11.779,100.114,0.0008261
5.69,73.0077,11.779,100.114,0.0011932
5.74,73.5078,11.779,100.115,0.0010554
5.79,74.0079,11.779,100.115,0.0005966
5.84,74.5079,11.779,100.116,0.0009635
5.89,75.008,11.779,100.116,0.0007339
5.94,75.5081,11.779,100.117,0.0016966
5.99,76.0082,11.779,100.117,0.0008257
6.04,76.5083,11.779,100.118,0.0006876
6.09,77.0084,11.779,100.118,0.0010998
6.14,77.5085,11.779,100.119,0.0005502
6.19,78.0086,11.779,100.119,0.0010542
6.24,78.5087,11.779,100.119,0.0002292
6.29,79.0088,11.779,100.12,0.0012836
6.34,79.5088,11.779,100.12,0.0004584
6.39,80.0089,11.779,100.121,0.0006874
6.44,80.509,11.779,100.121,0.0010537
6.49,81.0091,11.779,100.122,0.0008243
6.54,81.5092,11.779,100.122,0.0008245
6.59,82.0093,11.78,100.123,0.0013280
6.64,82.5094,11.78,100.123,0.0010988
6.69,83.0095,11.78,100.123,0.0007324
6.74,83.5096,11.78,100.124,0.0010530
6.79,84.0096,11.78,100.124,0.0012818
6.84,84.5097,11.78,100.125,0.0011903
6.89,85.0098,11.78,100.125,0.0005495
6.94,85.5099,11.78,100.126,0.0010992
6.99,86.01,11.78,100.126,0.0008242
7.04,86.5101,11.78,100.126,0.0004578
7.09,87.0102,11.78,100.127,0.0000916
7.14,87.5103,11.78,100.127,0.0010533
7.19,88.0104,11.78,100.127,0.0007784
7.24,88.5104,11.78,100.128,0.0003663
7.29,89.0105,11.78,100.128,0.0003663
7.34,89.5106,11.78,100.128,0.0013273
7.39,90.0107,11.78,100.128,0.0005493
7.44,90.5108,11.78,100.129,0.0011902
7.49,91.0109,11.78,100.129,0.0009609
7.54,91.511,11.78,100.13,0.0005031
7.59,92.0111,11.78,100.13,0.0003202
7.64,92.5112,11.78,100.13,0.0009610
7.69,93.0113,11.78,100.131,0.0007320
7.74,93.5113,11.781,100.131,0.0003660
7.79,94.0114,11.781,100.131,0.0002289
7.84,94.5115,11.781,100.131,0.0005035
7.89,95.0116,11.781,100.132,0.0004579
7.94,95.5117,11.781,100.132,0.0001832
7.99,96.0118,11.781,100.132,-0.0006871
8.04,96.5119,11.781,100.132,0.0001832
8.09,97.012,11.781,100.132,0.0002749
8.14,97.5121,11.781,100.132,0.0004582
8.19,98.0121,11.781,100.132,0.0010073
8.24,98.5122,11.781,100.133,0.0010070
8.29,99.0123,11.781,100.133,0.0003663
8.34,99.5124,11.781,100.133,0.0003204
8.39,100.013,11.781,100.134,0.0007323
8.44,100.513,11.781,100.134,0.0001373
8.49,101.013,11.781,100.134,0.0002288
8.54,101.513,11.781,100.134,0.0001373
8.59,102.013,11.781,100.134,0.0003661
8.64,102.513,11.781,100.134,0.0003661
8.69,103.013,11.781,100.134,0.0002747
8.74,103.513,11.781,100.134,0.0005951
8.79,104.013,11.781,100.135,-0.0000916
8.84,104.513,11.781,100.135,0.0007326
8.89,105.013,11.781,100.135,0.0005036
8.94,105.513,11.781,100.135,0.0003661
8.99,106.014,11.781,100.135,-0.0003205
9.04,106.514,11.781,100.135,0.0000916
9.09,107.014,11.781,100.135,0.0001374
9.14,107.514,11.781,100.135,-0.0000915
9.19,108.014,11.781,100.135,0.0000000
9.24,108.514,11.781,100.135,-0.0000915
9.29,109.014,11.781,100.135,0.0001373
9.34,109.514,11.781,100.135,-0.0004118
9.39,110.014,11.781,100.135,-0.0000916
9.44,110.514,11.781,100.135,-0.0000916
9.49,111.014,11.781,100.135,0.0000458
9.54,111.515,11.781,100.135,-0.0000916
9.59,112.015,11.781,100.135,0.0002290
9.64,112.515,11.781,100.135,-0.0003205
9.69,113.015,11.781,100.135,0.0000000
9.74,113.515,11.781,100.135,-0.0002747
9.79,114.015,11.781,100.135,-0.0001374
9.84,114.515,11.781,100.135,0.0000916
9.89,115.015,11.781,100.135,0.0000458
9.94,115.515,11.781,100.135,-0.0000458
9.99,116.015,11.781,100.135,-0.0000000
10.04,116.515,11.781,100.135,0.0000916
10.09,117.016,11.781,100.135,0.0000916
10.14,117.516,11.781,100.135,0.0000916
10.19,118.016,11.781,100.135,0.0002749
10.24,118.516,11.781,100.135,0.0000000
10.29,119.016,11.781,100.135,0.0000000
10.34,119.516,11.781,100.135,-0.0000000
10.39,120.016,11.781,100.135,-0.0000917
10.44,120.516,11.781,100.135,0.0000458
10.49,121.016,11.781,100.135,0.0000000
10.54,121.516,11.781,100.135,0.0003669
10.59,122.016,11.781,100.135,0.0003669
10.64,122.517,11.781,100.135,0.0002293
10.69,123.017,11.781,100.135,0.0002753
10.74,123.517,11.781,100.135,0.0001375
10.79,124.017,11.781,100.135,-0.0002291
10.84,124.517,11.781,100.135,-0.0002293
10.89,125.017,11.781,100.135,-0.0003670
10.94,125.517,11.781,100.135,-0.0000918
10.99,126.017,11.781,100.135,0.0003212
11.04,126.517,11.781,100.135,0.0004130
11.09,127.017,11.781,100.135,0.0005505
11.14,127.517,11.781,100.135,0.0003213
11.19,128.018,11.781,100.135,0.0001377
11.24,128.518,11.781,100.135,0.0005046
11.29,129.018,11.781,100.136,0.0000459
11.34,129.518,11.781,100.136,-0.0000000
11.39,130.018,11.781,100.136,-0.0002292
11.44,130.518,11.781,100.136,-0.0002749
11.49,131.018,11.781,100.136,0.0005958
11.54,131.518,11.781,100.136,0.0002750
11.59,132.018,11.781,100.136,0.0006871
11.64,132.518,11.781,100.136,0.0001374
11.69,133.018,11.781,100.136,0.0003204
11.74,133.518,11.781,100.136,-0.0000916
11.79,134.019,11.781,100.136,0.0000458
11.84,134.519,11.781,100.136,-0.0002288
11.89,135.019,11.781,100.136,-0.0000000
11.94,135.519,11.781,100.136,-0.0003660
11.99,136.019,11.781,100.136,-0.0003201
12.04,136.519,11.781,100.135,-0.0002284
12.09,137.019,11.781,100.135,-0.0011424
12.14,137.519,11.781,100.135,-0.0005482
12.19,138.019,11.781,100.134,-0.0006850
12.24,138.519,11.781,100.134,-0.0001825
12.29,139.019,11.781,100.134,-0.0010030
12.34,139.52,11.781,100.133,-0.0016415
12.39,140.02,11.781,100.132,-0.0015953
12.44,140.52,11.781,100.131,-0.0020486
12.49,141.02,11.78,100.13,-0.0021830
12.54,141.52,11.78,100.129,-0.0025034
12.59,142.02,11.78,100.127,-0.0026345
12.64,142.52,11.78,100.126,-0.0025438
12.69,143.02,11.78,100.125,-0.0024523
12.74,143.52,11.78,100.124,-0.0023643
12.79,144.02,11.78,100.123,-0.0022303
12.84,144.52,11.779,100.121,-0.0026423
12.89,145.021,11.779,100.12,-0.0014605
12.94,145.521,11.779,100.12,-0.0014618
12.99,146.021,11.779,100.119,-0.0020580
13.04,146.521,11.779,100.118,-0.0015106
13.09,147.021,11.779,100.117,-0.0014211
13.14,147.521,11.779,100.116,-0.0017878
13.19,148.021,11.779,100.115,-0.0017434
13.24,148.521,11.779,100.114,-0.0015154
13.29,149.021,11.779,100.114,-0.0016544
13.34,149.521,11.778,100.113,-0.0017473
13.39,150.021,11.778,100.112,-0.0015186
13.44,150.522,11.778,100.112,-0.0010121
13.49,151.022,11.778,100.111,-0.0010115
13.54,151.522,11.778,100.111,-0.0008740
13.59,152.022,11.778,100.11,-0.0007814
13.64,152.522,11.778,100.11,-0.0010573
13.69,153.022,11.778,100.109,-0.0015632
13.74,153.522,11.778,100.109,-0.0005517
13.79,154.022,11.778,100.109,-0.0005057
13.84,154.522,11.778,100.108,-0.0008746
13.89,155.022,11.778,100.108,-0.0005061
13.94,155.522,11.778,100.107,-0.0004134
13.99,156.023,11.778,100.107,-0.0011934
14.04,156.523,11.778,100.107,-0.0012395
14.09,157.023,11.778,100.106,-0.0011011
14.14,157.523,11.778,100.106,-0.0009191
14.19,158.023,11.778,100.105,-0.0014227
14.24,158.523,11.777,100.105,-0.0007332
14.29,159.023,11.777,100.105,-0.0004582
14.34,159.523,11.777,100.104,-0.0004126
14.39,160.023,11.777,100.104,-0.0004586
14.44,160.523,11.777,100.104,-0.0008257
14.5,161.023,11.777,100.103,-0.0006422
14.55,161.523,11.777,100.103,-0.0008716
14.6,162.024,11.777,100.103,-0.0012844
14.65,162.524,11.777,100.102,-0.0005046
14.7,163.024,11.777,100.102,-0.0005044
14.75,163.524,11.777,100.102,-0.0007341
14.8,164.024,11.777,100.101,-0.0007335
14.85,164.524,11.777,100.101,-0.0005501
14.9,165.024,11.777,100.101,-0.0004127
14.95,165.524,11.777,100.1,-0.0007796
15,166.024,11.777,100.1,-0.0006878
15.05,166.524,11.777,100.1,-0.0004124
15.1,167.024,11.777,100.1,-0.0007792
15.15,167.525,11.777,100.099,-0.0003208
15.2,168.025,11.777,100.099,-0.0009624
15.25,168.525,11.777,100.099,-0.0004586
15.3,169.025,11.777,100.098,-0.0008249
15.35,169.525,11.777,100.098,-0.0005501
15.4,170.025,11.777,100.098,-0.0003666
15.45,170.525,11.777,100.097,-0.0007791
15.5,171.025,11.777,100.097,-0.0005958
15.55,171.525,11.777,100.097,-0.0003664
15.6,172.025,11.776,100.097,-0.0004124
15.65,172.525,11.776,100.096,-0.0007331
15.7,173.026,11.776,100.096,-0.0005042
15.75,173.526,11.776,100.096,-0.0005498
15.8,174.026,11.776,100.095,-0.0008249
15.85,174.526,11.776,100.095,-0.0007331
15.9,175.026,11.776,100.095,-0.0004581
15.95,175.526,11.776,100.095,-0.0005497
16,176.026,11.776,100.094,-0.0002292
16.05,176.526,11.776,100.094,-0.0002750
16.1,177.026,11.776,100.094,-0.0000918
16.15,177.526,11.776,100.094,-0.0006409
16.2,178.026,11.776,100.093,-0.0005494
16.25,178.527,11.776,100.093,-0.0001831
16.3,179.027,11.776,100.093,-0.0006865
16.35,179.527,11.776,100.092,-0.0004576
16.4,180.027,11.776,100.092,-0.0010991
16.45,180.527,11.776,100.092,-0.0011447
16.5,181.027,11.776,100.092,-0.0002291
16.55,181.527,11.776,100.091,-0.0008244
16.6,182.027,11.776,100.091,-0.0001374
16.65,182.527,11.776,100.091,-0.0005954
16.7,183.027,11.776,100.091,-0.0012365
16.75,183.527,11.776,100.09,-0.0010075
16.8,184.028,11.776,100.09,-0.0005955
16.85,184.528,11.776,100.09,-0.0005497
16.9,185.028,11.776,100.089,0.0001375
16.95,185.528,11.776,100.09,-0.0002291
17,186.028,11.776,100.089,-0.0004582
17.05,186.528,11.776,100.089,-0.0006412
17.1,187.028,11.776,100.089,-0.0006412
17.15,187.528,11.776,100.089,-0.0005039
17.2,188.028,11.776,100.088,-0.0002293
17.25,188.528,11.776,100.088,-0.0000917
17.3,189.028,11.775,100.088,-0.0002293
17.35,189.528,11.775,100.088,-0.0003208
17.4,190.029,11.775,100.088,-0.0004125
17.45,190.529,11.775,100.088,-0.0000458
17.5,191.029,11.775,100.088,-0.0001373
17.55,191.529,11.775,100.087,-0.0004577
17.6,192.029,11.775,100.087,-0.0001373
17.65,192.529,11.775,100.087,-0.0002289
17.7,193.029,11.775,100.087,-0.0004581
17.75,193.529,11.775,100.087,-0.0004122
17.8,194.029,11.775,100.086,-0.0002291
17.85,194.529,11.775,100.086,-0.0002291
17.9,195.029,11.775,100.086,-0.0000000
17.95,195.53,11.775,100.086,-0.0003667
18,196.03,11.775,100.086,0.0000917
18.05,196.53,11.775,100.086,-0.0005961
18.1,197.03,11.775,100.086,-0.0003211
18.15,197.53,11.775,100.086,-0.0003213
18.2,198.03,11.775,100.085,-0.0004130
18.25,198.53,11.775,100.085,-0.0008720
18.3,199.03,11.775,100.085,-0.0005508
18.35,199.53,11.775,100.085,-0.0004586
18.4,200.03,11.775,100.085,-0.0003209
18.45,200.53,11.775,100.085,0.0002296
18.5,201.031,11.775,100.085,-0.0008242
18.55,201.531,11.775,100.084,-0.0001374
18.6,202.031,11.775,100.084,-0.0011919
18.65,202.531,11.775,100.084,0.0002294
18.7,203.031,11.775,100.084,-0.0001373
18.75,203.531,11.775,100.084,-0.0003203
18.8,204.031,11.775,100.084,-0.0005034
18.85,204.531,11.775,100.084,-0.0005493
18.9,205.031,11.775,100.084,-0.0000917
18.95,205.531,11.775,100.083,-0.0003665
19,206.031,11.775,100.083,-0.0004128
19.05,206.532,11.775,100.083,-0.0005043
19.1,207.032,11.775,100.083,0.0001376
19.15,207.532,11.775,100.083,-0.0004584
19.2,208.032,11.775,100.083,-0.0001375
19.25,208.532,11.775,100.083,-0.0002751
19.3,209.032,11.775,100.082,-0.0002750
19.35,209.532,11.775,100.082,-0.0001375
19.4,210.032,11.775,100.082,-0.0003209
19.45,210.532,11.775,100.082,0.0000917
19.5,211.032,11.775,100.082,0.0000458
19.55,211.532,11.775,100.082,-0.0002294
19.6,212.033,11.775,100.081,-0.0001834
19.65,212.533,11.775,100.081,-0.0009628
19.7,213.033,11.775,100.081,-0.0010539
19.75,213.533,11.775,100.08,-0.0009163
19.8,214.033,11.775,100.08,-0.0009620
19.85,214.533,11.774,100.079,-0.0007331
19.9,215.033,11.774,100.079,-0.0002748
19.95,215.533,11.774,100.079,-0.0003209
20,216.033,11.774,100.079,-0.0000916
20.05,216.533,11.774,100.078,-0.0008696
20.1,217.033,11.774,100.078,-0.0002291
20.15,217.533,11.774,100.078,-0.0009154
20.2,218.034,11.774,100.077,-0.0006407
20.25,218.534,11.774,100.077,-0.0003662
20.3,219.034,11.774,100.077,-0.0003662
20.35,219.534,11.774,100.077,-0.0009162
20.4,220.034,11.774,100.076,-0.0009162
20.45,220.534,11.774,100.076,-0.0006877
20.5,221.034,11.774,100.075,-0.0003667
20.55,221.534,11.774,100.075,-0.0009168
20.6,222.034,11.774,100.075,-0.0007338
20.65,222.534,11.774,100.075,-0.0009162
20.7,223.034,11.774,100.074,-0.0008253
20.75,223.535,11.774,100.074,-0.0007792
20.8,224.035,11.774,100.073,-0.0003211
20.85,224.535,11.774,100.073,-0.0005961
20.9,225.035,11.774,100.073,-0.0009169
20.95,225.535,11.774,100.073,-0.0006874
21,226.035,11.774,100.072,-0.0007328
21.05,226.535,11.774,100.072,-0.0007328
21.1,227.035,11.774,100.071,-0.0013282
21.15,227.535,11.773,100.071,-0.0004578
21.2,228.035,11.773,100.071,-0.0008242
21.25,228.535,11.773,100.07,-0.0009166
21.3,229.036,11.773,100.07,-0.0009158
21.35,229.536,11.773,100.07,-0.0004121
21.4,230.036,11.773,100.069,-0.0004580
21.45,230.536,11.773,100.069,-0.0001374
21.5,231.036,11.773,100.069,-0.0006864
21.55,231.536,11.773,100.069,-0.0007782
21.6,232.036,11.773,100.068,-0.0010996
21.65,232.536,11.773,100.068,-0.0003208
21.7,233.036,11.773,100.068,-0.0003666
21.75,233.536,11.773,100.067,-0.0006876
21.8,234.036,11.773,100.067,-0.0009629
21.85,234.537,11.773,100.067,-0.0005956
21.9,235.037,11.773,100.066,-0.0009166
21.95,235.537,11.773,100.066,-0.0005955
22,236.037,11.773,100.066,-0.0007331
22.05,236.537,11.773,100.065,-0.0007326
22.1,237.037,11.773,100.065,-0.0006872
22.15,237.537,11.773,100.065,-0.0009626
22.2,238.037,11.773,100.064,-0.0004583
22.25,238.537,11.773,100.064,-0.0002290
22.3,239.037,11.773,100.064,-0.0007329
22.35,239.537,11.773,100.064,-0.0006866
22.4,240.038,11.773,100.063,-0.0003214
22.45,240.538,11.773,100.063,-0.0005496
22.5,241.038,11.773,100.063,-0.0008701
22.55,241.538,11.772,100.062,-0.0009615
22.6,242.038,11.772,100.062,-0.0006878
22.65,242.538,11.772,100.062,-0.0007336
22.7,243.038,11.772,100.062,-0.0006880
22.75,243.538,11.772,100.061,-0.0004584
22.8,244.038,11.772,100.061,-0.0010544
22.85,244.538,11.772,100.061,-0.0004582
22.9,245.038,11.772,100.06,-0.0007330
22.95,245.538,11.772,100.06,-0.0005953
23,246.039,11.772,100.06,-0.0004582
23.05,246.539,11.772,100.06,-0.0007328
23.1,247.039,11.772,100.059,-0.0005956
23.15,247.539,11.772,100.058,-0.0011918
23.2,248.039,11.772,100.058,-0.0009171
23.26,248.539,11.772,100.057,-0.0006420
23.31,249.039,11.772,100.057,-0.0007333
23.36,249.539,11.772,100.057,-0.0006871
23.41,250.039,11.772,100.056,-0.0003664
23.46,250.539,11.772,100.056,-0.0005034
23.51,251.039,11.772,100.056,-0.0009155
23.56,251.54,11.772,100.056,-0.0006864
23.61,252.04,11.772,100.055,-0.0005954
23.66,252.54,11.772,100.055,-0.0004592
23.71,253.04,11.772,100.055,0.0001833
23.76,253.54,11.771,100.054,-0.0004584
23.81,254.04,11.771,100.054,-0.0006870
23.86,254.54,11.771,100.053,-0.0007784
23.91,255.04,11.771,100.053,-0.0009617
23.96,255.54,11.771,100.052,-0.0004122
24.01,256.04,11.771,100.052,-0.0006871
24.06,256.54,11.771,100.052,-0.0003206
24.11,257.041,11.771,100.051,-0.0009623
24.16,257.541,11.771,100.051,-0.0005952
24.21,258.041,11.771,100.051,-0.0007328
24.26,258.541,11.771,100.05,-0.0009162
24.31,259.041,11.771,100.05,-0.0008705
24.36,259.541,11.771,100.05,-0.0006871
24.41,260.041,11.771,100.049,-0.0005044
24.46,260.541,11.771,100.049,-0.0005960
24.51,261.041,11.771,100.049,-0.0004583
24.56,261.541,11.771,100.049,0.0000000
24.61,262.041,11.771,100.048,-0.0006416
24.66,262.542,11.771,100.048,-0.0009624
24.71,263.042,11.771,100.047,-0.0004583
24.76,263.542,11.771,100.047,-0.0012834
24.81,264.042,11.771,100.046,-0.0005505
24.86,264.542,11.771,100.046,-0.0009623
24.91,265.042,11.771,100.046,-0.0006874
24.96,265.542,11.77,100.045,-0.0006415
25.01,266.042,11.77,100.045,-0.0008244
25.06,266.542,11.77,100.044,-0.0010073
25.11,267.042,11.77,100.044,-0.0006872
25.16,267.542,11.77,100.043,-0.0005955
25.21,268.043,11.77,100.043,-0.0003205
25.26,268.543,11.77,100.043,-0.0007332
25.31,269.043,11.77,100.043,-0.0009610
25.36,269.543,11.77,100.042,-0.0006863
25.41,270.043,11.77,100.042,-0.0013278
25.46,270.543,11.77,100.041,-0.0010541
25.51,271.043,11.77,100.041,-0.0016508
25.56,271.543,11.77,100.04,-0.0015124
25.61,272.043,11.77,100.039,-0.0009166
25.66,272.543,11.77,100.039,-0.0011918
25.71,273.043,11.77,100.038,-0.0010080
25.76,273.543,11.77,100.038,-0.0010079
25.81,274.044,11.77,100.038,-0.0003666
25.86,274.544,11.769,100.037,-0.0011912
25.91,275.044,11.769,100.037,-0.0008705
25.96,275.544,11.769,100.036,-0.0009624
26.01,276.044,11.769,100.036,-0.0011911
26.06,276.544,11.769,100.035,-0.0010537
26.11,277.044,11.769,100.035,-0.0010539
26.16,277.544,11.769,100.034,-0.0012830
26.21,278.044,11.769,100.034,-0.0005958
26.26,278.544,11.769,100.033,-0.0008706
26.31,279.044,11.769,100.033,-0.0012828
26.36,279.545,11.769,100.032,-0.0011458
26.41,280.045,11.769,100.032,-0.0010535
26.46,280.545,11.769,100.031,-0.0008251
26.51,281.045,11.769,100.031,-0.0011916
26.56,281.545,11.769,100.03,-0.0014215
26.61,282.045,11.769,100.03,-0.0008252
26.66,282.545,11.769,100.029,-0.0010536
26.71,283.045,11.769,100.029,-0.0012369
26.76,283.545,11.768,100.028,-0.0008246
26.81,284.045,11.768,100.028,-0.0012356
26.86,284.545,11.768,100.027,-0.0009607
26.91,285.046,11.768,100.027,-0.0009610
26.96,285.546,11.768,100.026,-0.0009154
27.01,286.046,11.768,100.026,-0.0012816
27.06,286.546,11.768,100.025,-0.0009163
27.11,287.046,11.768,100.025,-0.0007330
27.16,287.546,11.768,100.024,-0.0004583
27.21,288.046,11.768,100.024,-0.0010083
27.26,288.546,11.768,100.023,-0.0010537
27.31,289.046,11.768,100.023,-0.0007788
27.36,289.546,11.768,100.022,-0.0010989
27.41,290.046,11.768,100.022,-0.0010989
27.46,290.547,11.768,100.021,-0.0003205
27.51,291.047,11.768,100.021,-0.0004122
27.56,291.547,11.768,100.02,-0.0006869
27.61,292.047,11.767,100.02,-0.0004121
27.66,292.547,11.767,100.019,-0.0012367
27.71,293.047,11.767,100.019,-0.0010082
27.76,293.547,11.767,100.018,-0.0009624
27.81,294.047,11.767,100.018,-0.0009169
27.86,294.547,11.767,100.017,-0.0010989
27.91,295.047,11.767,100.017,-0.0009158
27.96,295.547,11.767,100.016,-0.0011905
28.01,296.048,11.767,100.015,-0.0009158
28.06,296.548,11.767,100.015,-0.0010077
28.11,297.048,11.767,100.014,-0.0008247
28.16,297.548,11.767,100.014,-0.0013744
28.21,298.048,11.767,100.013,-0.0010983
28.26,298.548,11.767,100.012,-0.0012821
28.31,299.048,11.767,100.012,-0.0012363
28.36,299.548,11.766,100.011,-0.0011912
28.41,300.048,11.766,100.011,-0.0004585
28.46,300.548,11.766,100.01,-0.0010082
28.51,301.048,11.766,100.009,-0.0013744
28.56,301.548,11.766,100.009,-0.0012825
28.61,302.049,11.766,100.008,-0.0011451
28.66,302.549,11.766,100.007,-0.0018322
28.71,303.049,11.766,100.007,-0.0011447
28.76,303.549,11.766,100.006,-0.0013744
28.81,304.049,11.766,100.005,-0.0014202
28.86,304.549,11.766,100.005,-0.0007326
28.91,305.049,11.766,100.004,-0.0009158
28.96,305.549,11.766,100.004,-0.0005037
29.01,306.049,11.765,100.003,-0.0013744
29.06,306.549,11.765,100.002,-0.0011911
29.11,307.049,11.765,100.002,-0.0012814
29.16,307.55,11.765,100.001,-0.0015110
29.21,308.05,11.765,100,-0.0012809
29.26,308.55,11.765,100,-0.0018315
29.31,309.05,11.765,99.999,-0.0019242
29.36,309.55,11.765,99.998,-0.0011457
29.41,310.05,11.765,99.997,-0.0015124
29.46,310.55,11.765,99.997,-0.0014660
29.51,311.05,11.765,99.996,-0.0013744
29.56,311.55,11.765,99.996,-0.0001832
29.61,312.05,11.765,99.995,-0.0014671
29.66,312.55,11.764,99.994,-0.0009161
29.71,313.051,11.764,99.993,-0.0011935
29.76,313.551,11.764,99.993,-0.0009624
29.81,314.051,11.764,99.992,-0.0011428
29.86,314.551,11.764,99.992,-0.0016010
29.91,315.051,11.764,99.991,-0.0016484
29.96,315.551,11.764,99.99,-0.0015568
30.01,316.051,11.764,99.989,-0.0010531
30.06,316.551,11.764,99.989,-0.0017880
30.11,317.051,11.764,99.988,-0.0014199
30.16,317.551,11.764,99.987,-0.0013741
30.21,318.051,11.764,99.986,-0.0022427
30.26,318.552,11.763,99.986,-0.0011454
30.31,319.052,11.763,99.985,-0.0016484
30.36,319.552,11.763,99.984,-0.0017412
30.41,320.052,11.763,99.983,-0.0014194
30.46,320.552,11.763,99.983,-0.0017415
30.51,321.052,11.763,99.982,-0.0016484
30.56,321.552,11.763,99.981,-0.0021090
30.61,322.052,11.763,99.98,-0.0012363
30.66,322.552,11.763,99.979,-0.0011447
30.71,323.052,11.763,99.979,-0.0021528
30.76,323.552,11.763,99.978,-0.0017399
30.81,324.053,11.762,99.977,-0.0005493
30.86,324.553,11.762,99.976,-0.0009610
30.91,325.053,11.762,99.975,-0.0015102
30.96,325.553,11.762,99.975,-0.0016032
31.01,326.053,11.762,99.974,-0.0021070
31.06,326.553,11.762,99.973,-0.0012366
31.11,327.053,11.762,99.972,-0.0015129
31.16,327.553,11.762,99.971,-0.0012379
31.21,328.053,11.762,99.971,-0.0015124
31.26,328.553,11.762,99.97,-0.0015124
31.31,329.053,11.761,99.969,-0.0012372
31.36,329.553,11.761,99.968,-0.0014194
31.41,330.054,11.761,99.967,-0.0016941
31.46,330.554,11.761,99.966,-0.0021528
31.51,331.054,11.761,99.966,-0.0014194
31.56,331.554,11.761,99.965,-0.0014202
31.61,332.054,11.761,99.964,-0.0016026
31.66,332.554,11.761,99.963,-0.0018315
31.71,333.054,11.761,99.962,-0.0020604
31.76,333.554,11.761,99.961,-0.0022894
31.81,334.054,11.76,99.96,-0.0017857
31.86,334.554,11.76,99.96,-0.0015559
31.91,335.054,11.76,99.959,-0.0011898
31.96,335.555,11.76,99.958,-0.0017399
32.01,336.055,11.76,99.957,-0.0017405
32.06,336.555,11.76,99.956,-0.0016484
32.11,337.055,11.76,99.955,-0.0012815
32.16,337.555,11.76,99.954,-0.0018763
32.21,338.055,11.76,99.954,-0.0021509
32.26,338.555,11.76,99.953,-0.0021054
32.31,339.055,11.759,99.952,-0.0019231
32.36,339.555,11.759,99.951,-0.0018780
32.41,340.055,11.759,99.95,-0.0020157
32.46,340.555,11.759,99.948,-0.0022927
32.51,341.056,11.759,99.947,-0.0019242
32.56,341.556,11.759,99.946,-0.0013744
32.61,342.056,11.759,99.946,-0.0017850
32.66,342.556,11.759,99.945,-0.0022428
32.71,343.056,11.758,99.943,-0.0015102
32.76,343.556,11.758,99.942,-0.0017399
32.81,344.056,11.758,99.942,-0.0020135
32.86,344.556,11.758,99.94,-0.0018780
32.91,345.056,11.758,99.939,-0.0024267
32.96,345.556,11.758,99.938,-0.0021509
33.01,346.056,11.758,99.937,-0.0027971
33.06,346.557,11.758,99.936,-0.0013742
33.11,347.057,11.758,99.935,-0.0022424
33.16,347.557,11.757,99.934,-0.0021054
33.21,348.057,11.757,99.933,-0.0020195
33.26,348.557,11.757,99.932,-0.0015130
33.31,349.057,11.757,99.931,-0.0020604
33.36,349.557,11.757,99.93,-0.0021970
33.41,350.057,11.757,99.929,-0.0025192
33.46,350.557,11.757,99.927,-0.0020616
33.51,351.057,11.756,99.926,-0.0026572
33.56,351.557,11.756,99.925,-0.0024277
33.61,352.058,11.756,99.924,-0.0029789
33.66,352.558,11.756,99.923,-0.0020616
33.71,353.058,11.756,99.922,-0.0020616
33.76,353.558,11.756,99.921,-0.0025665
33.81,354.058,11.756,99.919,-0.0021539
33.86,354.558,11.756,99.918,-0.0026591
33.91,355.058,11.755,99.917,-0.0028420
33.96,355.558,11.755,99.916,-0.0026109
34.01,356.058,11.755,99.914,-0.0023802
34.06,356.558,11.755,99.913,-0.0024245
34.11,357.058,11.755,99.912,-0.0028830
34.16,357.558,11.755,99.911,-0.0022416
34.21,358.059,11.754,99.909,-0.0028836
34.26,358.559,11.754,99.908,-0.0030220
34.31,359.059,11.754,99.906,-0.0031136
34.36,359.559,11.754,99.905,-0.0029723
34.41,360.059,11.754,99.903,-0.0029729
34.46,360.559,11.754,99.902,-0.0030661
34.51,361.059,11.753,99.901,-0.0024711
34.56,361.559,11.753,99.899,-0.0030220
34.61,362.059,11.753,99.898,-0.0027493
34.66,362.559,11.753,99.896,-0.0032098
34.71,363.059,11.753,99.894,-0.0035321
34.76,363.56,11.753,99.893,-0.0035747
34.81,364.06,11.752,99.891,-0.0030678
34.86,364.56,11.752,99.889,-0.0032967
34.91,365.06,11.752,99.888,-0.0037976
34.96,365.56,11.752,99.886,-0.0036172
35.01,366.06,11.751,99.884,-0.0039377
35.06,366.56,11.751,99.882,-0.0037088
35.11,367.06,11.751,99.88,-0.0037060
35.16,367.56,11.751,99.879,-0.0041644
35.21,368.06,11.751,99.877,-0.0033413
35.26,368.56,11.75,99.875,-0.0042156
35.31,369.061,11.75,99.873,-0.0038483
35.36,369.561,11.75,99.871,-0.0041682
35.41,370.061,11.75,99.869,-0.0038440
35.46,370.561,11.749,99.867,-0.0041171
35.51,371.061,11.749,99.865,-0.0045746
35.56,371.561,11.749,99.862,-0.0045737
35.61,372.061,11.749,99.86,-0.0046644
35.66,372.561,11.748,99.858,-0.0047101
35.71,373.061,11.748,99.855,-0.0039355
35.76,373.561,11.748,99.853,-0.0045746
35.81,374.061,11.748,99.851,-0.0048472
35.86,374.562,11.747,99.848,-0.0048930
35.91,375.062,11.747,99.846,-0.0052169
35.96,375.562,11.747,99.843,-0.0057692
36.01,376.062,11.746,99.84,-0.0054000
36.06,376.562,11.746,99.838,-0.0054468
36.11,377.062,11.746,99.835,-0.0056777
36.16,377.562,11.745,99.832,-0.0059502
36.21,378.062,11.745,99.829,-0.0053571
36.26,378.562,11.745,99.826,-0.0060440
36.31,379.062,11.744,99.823,-0.0063680
36.36,379.562,11.744,99.82,-0.0063703
36.41,380.063,11.744,99.817,-0.0065018
36.46,380.563,11.743,99.814,-0.0065054
36.51,381.063,11.743,99.81,-0.0068719
36.56,381.563,11.742,99.806,-0.0082875
36.61,382.063,11.742,99.803,-0.0071886
36.66,382.563,11.742,99.799,-0.0067345
36.71,383.063,11.741,99.796,-0.0075577
36.76,383.563,11.741,99.792,-0.0075550
36.81,384.063,11.74,99.788,-0.0075050
36.86,384.563,11.74,99.784,-0.0079184
36.91,385.063,11.739,99.78,-0.0083333
36.96,385.563,11.739,99.776,-0.0085607
37.01,386.064,11.738,99.772,-0.0092084
37.06,386.564,11.738,99.767,-0.0094322
37.11,387.064,11.737,99.762,-0.0096154
37.16,387.564,11.737,99.757,-0.0094833
37.21,388.064,11.736,99.752,-0.0104931
37.26,388.564,11.735,99.747,-0.0102564
37.31,389.064,11.735,99.742,-0.0103022
37.36,389.564,11.734,99.737,-0.0111223
37.41,390.064,11.734,99.731,-0.0116236
37.46,390.564,11.733,99.726,-0.0118982
37.51,391.064,11.732,99.72,-0.0116758
37.56,391.565,11.731,99.714,-0.0117609
37.61,392.065,11.731,99.708,-0.0125413
37.66,392.565,11.73,99.702,-0.0122711
37.71,393.065,11.729,99.695,-0.0130952
37.76,393.565,11.729,99.689,-0.0135148
37.81,394.065,11.728,99.682,-0.0141026
37.86,394.565,11.727,99.675,-0.0141026
37.91,395.065,11.726,99.668,-0.0150266
37.96,395.565,11.725,99.66,-0.0152098
38.01,396.065,11.724,99.653,-0.0152098
38.06,396.565,11.723,99.645,-0.0158309
38.11,397.066,11.722,99.637,-0.0162337
38.16,397.566,11.721,99.629,-0.0161512
38.21,398.066,11.721,99.621,-0.0165600
38.26,398.566,11.719,99.612,-0.0173993
38.31,399.066,11.718,99.603,-0.0183150
38.36,399.566,11.717,99.594,-0.0186744
38.41,400.066,11.716,99.585,-0.0192202
38.46,400.566,11.715,99.575,-0.0193962
38.51,401.066,11.714,99.565,-0.0199523
38.56,401.566,11.713,99.555,-0.0206157
38.61,402.066,11.712,99.544,-0.0212688
38.66,402.567,11.71,99.534,-0.0221304
38.71,403.067,11.709,99.523,-0.0221357
38.76,403.567,11.708,99.511,-0.0237266
38.81,404.067,11.706,99.499,-0.0234432
38.86,404.567,11.705,99.488,-0.0233143
38.91,405.067,11.703,99.476,-0.0242527
38.96,405.567,11.702,99.463,-0.0250091
39.01,406.067,11.7,99.45,-0.0260073
39.06,406.567,11.699,99.437,-0.0274575
39.11,407.067,11.697,99.423,-0.0281793
39.16,407.567,11.696,99.409,-0.0291017
39.21,408.068,11.694,99.394,-0.0290889
39.26,408.568,11.692,99.379,-0.0309307
39.31,409.068,11.69,99.364,-0.0324481
39.36,409.568,11.688,99.347,-0.0328827
39.41,410.068,11.686,99.331,-0.0333365
39.46,410.568,11.684,99.313,-0.0349369
39.51,411.068,11.682,99.296,-0.0361981
39.56,411.568,11.68,99.277,-0.0381062
39.61,412.068,11.678,99.258,-0.0385531
39.66,412.568,11.676,99.238,-0.0401099
39.71,413.068,11.673,99.218,-0.0418040
39.76,413.568,11.671,99.197,-0.0429644
39.81,414.069,11.668,99.175,-0.0443223
39.86,414.569,11.665,99.153,-0.0458540
39.91,415.069,11.663,99.129,-0.0470896
39.96,415.569,11.66,99.105,-0.0489289
40.01,416.069,11.657,99.08,-0.0506039
40.06,416.569,11.654,99.055,-0.0519213
40.11,417.069,11.651,99.028,-0.0535681
40.16,417.569,11.648,99.001,-0.0557136
40.21,418.069,11.644,98.972,-0.0567185
40.26,418.569,11.641,98.943,-0.0607182
40.31,419.069,11.637,98.912,-0.0624542
40.36,419.57,11.633,98.88,-0.0648894
40.41,420.07,11.63,98.847,-0.0671211
40.46,420.57,11.625,98.813,-0.0706502
40.51,421.07,11.621,98.778,-0.0723035
40.56,421.57,11.617,98.741,-0.0756399
40.61,422.07,11.612,98.703,-0.0770676
40.66,422.57,11.608,98.664,-0.0787477
40.71,423.07,11.603,98.623,-0.0808488
40.76,423.57,11.598,98.582,-0.0832724
40.81,424.07,11.593,98.54,-0.0864152
40.86,424.57,11.588,98.496,-0.0923312
40.91,425.071,11.583,98.45,-0.0975657
40.96,425.571,11.577,98.401,-0.0979955
41.01,426.071,11.571,98.348,-0.1109740
41.06,426.571,11.564,98.289,-0.1355490
41.11,427.071,11.557,98.227,-0.1237640
41.16,427.571,11.549,98.161,-0.1398540
41.21,428.071,11.54,98.09,-0.1460120
41.26,428.571,11.532,98.015,-0.1509150
41.31,429.071,11.522,97.937,-0.1548590
41.36,429.571,11.513,97.854,-0.1609790
41.41,430.071,11.502,97.767,-0.1713800
41.46,430.572,11.492,97.676,-0.1874080
41.51,431.072,11.481,97.583,-0.1851190
41.56,431.572,11.469,97.485,-0.1941850
41.61,432.072,11.457,97.384,-0.2027010
41.66,432.572,11.445,97.281,-0.2186990
41.71,433.072,11.433,97.175,-0.2224560
41.76,433.572,11.42,97.069,-0.2054390
41.81,434.072,11.407,96.959,-0.2237910
41.86,434.572,11.394,96.844,-0.2422220
41.91,435.072,11.38,96.725,-0.2469780
41.96,435.572,11.365,96.596,-0.2576470
42.01,436.073,11.349,96.461,-0.2642490
42.06,436.573,11.332,96.319,-0.2909570
42.11,437.073,11.314,96.167,-0.3133470
42.16,437.573,11.295,96,-0.3474360
42.21,438.073,11.274,95.826,-0.3557230
42.26,438.573,11.253,95.643,-0.3700570
42.31,439.073,11.231,95.458,-0.3708160
42.36,439.573,11.208,95.268,-0.4177510
42.41,440.073,11.183,95.053,-0.4137090
42.46,440.573,11.159,94.847,-0.4036630
42.51,441.073,11.133,94.624,-0.4767400
42.56,441.573,11.103,94.368,-0.5620290
42.61,442.074,11.068,94.078,-0.6303910
42.66,442.574,11.031,93.763,-0.6757550
42.71,443.074,10.992,93.427,-0.6608230
42.76,443.574,10.952,93.089,-0.6980730
42.81,444.074,10.91,92.729,-0.7700240
42.86,444.574,10.862,92.323,-0.7708050
42.91,445.074,10.816,91.932,-0.7530270
42.96,445.574,10.767,91.513,-0.8983430
43.01,446.074,10.714,91.068,-0.8718350
43.06,446.574,10.659,90.6,-0.9793490
43.12,447.074,10.601,90.101,-0.9943930
43.17,447.575,10.539,89.582,-1.06248
43.22,448.075,10.477,89.052,-1.06394
43.27,448.575,10.415,88.522,-1.02879
43.32,449.075,10.357,88.029,-1.08311
43.37,449.575,10.296,87.514,-1.01096
43.42,450.075,10.236,87.002,-1.05287
43.47,450.575,10.166,86.408,-1.19518
43.52,451.075,10.089,85.754,-1.38579
43.57,451.575,10.014,85.119,-1.29762
43.62,452.075,9.938,84.468,-1.36051
43.67,452.575,9.854,83.755,-1.4165
43.72,453.076,9.77,83.042,-1.49086
43.77,453.576,9.678,82.264,-1.35771
43.82,454.076,9.597,81.572,-1.47299
43.87,454.576,9.499,80.742,-1.7166
43.92,455.076,9.396,79.862,-1.81653
43.97,455.576,9.287,78.941,-1.83363
44.02,456.076,9.185,78.067,-1.58781
44.07,456.576,9.09,77.259,-1.80656
44.12,457.076,8.973,76.27,-1.96382
44.17,457.576,8.856,75.269,-1.88362
44.22,458.076,8.744,74.324,-2.02161
44.27,458.577,8.621,73.272,-2.14626
44.32,459.077,8.49,72.159,-2.27749
44.37,459.577,8.353,70.997,-2.19375
44.42,460.077,8.215,69.825,-2.40316
44.47,460.577,8.073,68.621,-2.57139
44.52,461.077,7.926,67.373,-2.7489
44.57,461.577,7.767,66.014,-2.70421
44.62,462.077,7.604,64.627,-2.80393
44.67,462.577,7.433,63.182,-3.04183
44.72,463.077,7.257,61.682,-3.02647
44.77,463.577,7.083,60.203,-2.87881
44.82,464.078,6.892,58.577,-3.2557
44.87,464.578,6.704,56.978,-3.1986
44.92,465.078,6.503,55.271,-3.48237
44.97,465.578,6.289,53.452,-3.62874
45.02,466.078,6.081,51.69,-3.72852
45.07,466.578,5.865,49.851,-3.75049
45.12,467.078,5.643,47.966,-3.78133
45.17,467.578,5.42,46.068,-3.78888
45.22,468.078,5.185,44.07,-4.01665
45.27,468.578,4.946,42.042,-3.95829
45.32,469.078,4.708,40.013,-4.03833
45.37,469.578,4.475,38.035,-4.05077
45.42,470.079,4.236,36.001,-4.01927
45.47,470.579,3.993,33.936,-4.17559
45.52,471.079,3.748,31.858,-4.06157
45.57,471.579,3.509,29.828,-4.08379
45.62,472.079,3.259,27.704,-4.17868
45.66,472.579,3.022,25.686,-4.16199
45.71,473.079,2.777,23.601,-4.08908
45.76,473.579,2.537,21.566,-3.98064
45.81,474.079,2.304,19.58,-3.87613
45.86,474.579,2.076,17.646,-3.86781
45.91,475.079,1.852,15.742,-3.68941
45.96,475.58,1.64,13.939,-3.55717
46.01,476.08,1.443,12.268,-3.35171
46.06,476.58,1.251,10.631,-3.18561
46.11,477.08,1.071,9.1,-2.909
46.16,477.58,0.9020000,7.667,-2.59973
46.21,478.08,0.7510000,6.382,-2.46479
46.26,478.58,0.6120000,5.201,-2.21642
46.31,479.08,0.4920000,4.182,-1.94329
46.36,479.58,0.3870000,3.287,-1.60155
46.41,480.08,0.3010000,2.556,-1.41482
46.46,480.58,0.2260000,1.922,-1.14746
46.51,481.081,0.1680000,1.425,-0.8825590
46.56,481.581,0.1210000,1.029,-0.7190340
46.61,482.081,0.0870000,0.7430000,-0.5126970
46.66,482.581,0.0630000,0.5340000,-0.3417880
46.71,483.081,0.0460000,0.3920000,-0.2266680
46.76,483.581,0.0360000,0.3040000,-0.1371790
46.81,484.081,0.0300000,0.2560000,-0.0729108
46.86,484.581,0.0270000,0.2290000,-0.0425513
46.91,485.081,0.0240000,0.2070000,-0.0430483
46.96,485.581,0.0220000,0.1860000,-0.0399778
47.01,486.081,0.0200000,0.1670000,-0.0346824
47.06,486.582,0.0180000,0.1520000,-0.0285977
47.11,487.082,0.0160000,0.1390000,-0.0232497
47.16,487.582,0.0150000,0.1290000,-0.0182255
47.21,488.082,0.0140000,0.1200000,-0.0136815
47.26,488.582,0.0130000,0.1140000,-0.0105623
47.31,489.082,0.0130000,0.1090000,-0.0079178
47.36,489.582,0.0120000,0.1060000,-0.0064673
47.41,490.082,0.0120000,0.1030000,-0.0046974
47.46,490.582,0.0120000,0.1010000,-0.0038648
47.51,491.082,0.0120000,0.0990000,-0.0030468
47.56,491.582,0.0120000,0.0980000,-0.0018003
47.61,492.083,0.0110000,0.0970000,-0.0017752
47.66,492.583,0.0110000,0.0960000,-0.0014899
47.71,493.083,0.0110000,0.0960000,-0.0008250
47.76,493.583,0.0110000,0.0950000,-0.0008105
47.81,494.083,0.0110000,0.0950000,-0.0007388
47.86,494.583,0.0110000,0.0940000,-0.0002184
47.91,495.083,0.0110000,0.0940000,-0.0000296
47.96,495.583,0.0110000,0.0940000,0.0000358
48.01,496.083,0.0110000,0.0940000,0.0000473
48.06,496.583,0.0110000,0.0940000,0.0009873
48.11,497.083,0.0110000,0.0940000,0.0001798
48.16,497.583,0.0110000,0.0940000,0.0004070
48.21,498.084,0.0110000,0.0940000,0.0001154
48.26,498.584,0.0110000,0.0940000,0.0010356
48.31,499.084,0.0110000,0.0950000,0.0019967
48.36,499.584,0.0110000,0.0960000,0.0009597
48.41,500.084,0.0110000,0.0960000,0.0002890
48.46,500.584,0.0110000,0.0960000,-0.0011114
48.51,501.084,0.0110000,0.0980000,-0.0001364
48.56,501.584,0.0110000,0.0960000,-0.0039451
48.61,502.084,0.0110000,0.0940000,-0.0041066
48.66,502.584,0.0110000,0.0920000,-0.0029426
48.71,503.084,0.0110000,0.0910000,-0.0022993
48.76,503.585,0.0110000,0.0900000,-0.0013514
48.81,504.085,0.0110000,0.0900000,-0.0006843
48.86,504.585,0.0110000,0.0890000,-0.0008205
48.91,505.085,0.0100000,0.0890000,-0.0009515
48.96,505.585,0.0100000,0.0880000,-0.0006336
49.01,506.085,0.0100000,0.0880000,-0.0016674
49.06,506.585,0.0100000,0.0870000,0.0003288
49.11,507.085,0.0100000,0.0890000,0.0017932
49.16,507.585,0.0110000,0.0900000,0.0010526
49.21,508.085,0.0110000,0.0900000,0.0004744
49.26,508.585,0.0110000,0.0910000,0.0005891
49.31,509.086,0.0110000,0.0910000,-0.0004694
49.36,509.586,0.0110000,0.0900000,-0.0010796
49.41,510.086,0.0110000,0.0920000,0.0032174
49.46,510.586,0.0110000,0.0920000,0.0000966
49.51,511.086,0.0110000,0.0920000,-0.0003280
49.56,511.586,0.0110000,0.0910000,-0.0002735
49.61,512.086,0.0110000,0.0910000,0.0002700
49.66,512.586,0.0110000,0.0910000,-0.0003921
49.71,513.086,0.0110000,0.0910000,-0.0006057
49.76,513.586,0.0110000,0.0910000,-0.0000533
49.81,514.086,0.0110000,0.0900000,-0.0004922
49.86,514.587,0.0110000,0.0900000,-0.0005106
49.91,515.087,0.0110000,0.0900000,0.0001934
49.96,515.587,0.0110000,0.0900000,0.0008699
50.01,516.087,0.0110000,0.0900000,0.0003258
50.06,516.587,0.0110000,0.0900000,-0.0001405
50.11,517.087,0.0110000,0.0900000,0.0003380
50.16,517.587,0.0110000,0.0910000,0.0003461
50.21,518.087,0.0110000,0.0910000,0.0007390
50.26,518.587,0.0110000,0.0910000,0.0000874
50.31,519.087,0.0110000,0.0910000,0.0003653
50.36,519.587,0.0110000,0.0910000,0.0008710
50.41,520.088,0.0110000,0.0910000,0.0002972
50.46,520.588,0.0110000,0.0910000,0.0002676
50.51,521.088,0.0110000,0.0910000,-0.0003171
50.56,521.588,0.0110000,0.0920000,0.0001844
50.61,522.088,0.0110000,0.0910000,0.0004038
50.66,522.588,0.0110000,0.0920000,0.0004530
50.71,523.088,0.0110000,0.0920000,-0.0001537
50.76,523.588,0.0110000,0.0920000,-0.0001674
50.81,524.088,0.0110000,0.0920000,0.0006422
50.86,524.588,0.0110000,0.0920000,0.0001726
50.91,525.088,0.0110000,0.0920000,0.0001948
50.96,525.588,0.0110000,0.0920000,-0.0002916
51.01,526.089,0.0110000,0.0920000,0.0004709
51.06,526.589,0.0110000,0.0920000,0.0003745
51.11,527.089,0.0110000,0.0920000,0.0003743
51.16,527.589,0.0110000,0.0920000,0.0001058
51.21,528.089,0.0110000,0.0920000,0.0004475
51.26,528.589,0.0110000,0.0920000,0.0001310
51.31,529.089,0.0110000,0.0920000,-0.0000109
51.36,529.589,0.0110000,0.0920000,-0.0000355
51.41,530.089,0.0110000,0.0920000,-0.0001673
51.46,530.589,0.0110000,0.0920000,0.0000606
51.51,531.089,0.0110000,0.0920000,0.0005261
51.56,531.59,0.0110000,0.0920000,0.0006311
51.61,532.09,0.0110000,0.0920000,-0.0003427
51.66,532.59,0.0110000,0.0920000,0.0000530
51.71,533.09,0.0110000,0.0930000,0.0005831
51.76,533.59,0.0110000,0.0930000,0.0000240
51.81,534.09,0.0110000,0.0930000,-0.0005841
51.86,534.59,0.0110000,0.0930000,0.0002610
51.91,535.09,0.0110000,0.0930000,0.0001447
51.96,535.59,0.0110000,0.0930000,0.0003139
52.01,536.09,0.0110000,0.0930000,-0.0004078
52.06,536.59,0.0110000,0.0930000,0.0001512
52.11,537.091,0.0110000,0.0930000,-0.0000036
52.16,537.591,0.0110000,0.0930000,0.0002746
52.21,538.091,0.0110000,0.0930000,0.0004028
52.26,538.591,0.0110000,0.0930000,-0.0002267
52.31,539.091,0.0110000,0.0930000,-0.0006721
52.36,539.591,0.0110000,0.0930000,0.0002554
52.41,540.091,0.0110000,0.0930000,0.0004225
52.46,540.591,0.0110000,0.0930000,0.0003803
52.51,541.091,0.0110000,0.0930000,-0.0000805
52.56,541.591,0.0110000,0.0930000,0.0002105
52.61,542.091,0.0110000,0.0930000,0.0004502
52.66,542.592,0.0110000,0.0930000,-0.0003344
52.71,543.092,0.0110000,0.0940000,0.0001738
52.76,543.592,0.0110000,0.0940000,0.0001779
52.81,544.092,0.0110000,0.0940000,0.0001847
52.86,544.592,0.0110000,0.0940000,-0.0003926
52.91,545.092,0.0110000,0.0940000,0.0001470
52.96,545.592,0.0110000,0.0940000,0.0003093
53.01,546.092,0.0110000,0.0940000,0.0002059
53.06,546.592,0.0110000,0.0940000,-0.0000304
53.11,547.092,0.0110000,0.0940000,0.0008515
53.16,547.592,0.0110000,0.0940000,0.0003435
53.21,548.093,0.0110000,0.0940000,0.0000475
53.26,548.593,0.0110000,0.0940000,0.0001139
53.31,549.093,0.0110000,0.0940000,-0.0000506
53.36,549.593,0.0110000,0.0940000,-0.0001751
53.41,550.093,0.0110000,0.0940000,0.0000871
53.46,550.593,0.0110000,0.0940000,0.0004687
53.51,551.093,0.0110000,0.0950000,-0.0000403
53.56,551.593,0.0110000,0.0950000,-0.0002495
53.61,552.093,0.0110000,0.0950000,0.0003350
53.66,552.593,0.0110000,0.0950000,0.0005809
53.71,553.093,0.0110000,0.0950000,0.0001083
53.76,553.593,0.0110000,0.0950000,-0.0002379
53.81,554.094,0.0110000,0.0950000,0.0005623
53.86,554.594,0.0110000,0.0950000,0.0002412
53.91,555.094,0.0110000,0.0950000,0.0000022
53.96,555.594,0.0110000,0.0950000,0.0001106
54.01,556.094,0.0110000,0.0950000,0.0000539
54.06,556.594,0.0110000,0.0950000,0.0002691
54.11,557.094,0.0110000,0.0950000,-0.0007989
54.16,557.594,0.0110000,0.0960000,0.0004702
54.21,558.094,0.0110000,0.0960000,-0.0004339
54.26,558.594,0.0110000,0.0960000,-0.0000627
54.31,559.094,0.0110000,0.0960000,0.0003522
54.36,559.595,0.0110000,0.0960000,0.0002047
54.41,560.095,0.0110000,0.0960000,-0.0002925
54.46,560.595,0.0110000,0.0960000,0.0000111
54.51,561.095,0.0110000,0.0960000,0.0004502
54.56,561.595,0.0110000,0.0960000,-0.0002968
54.61,562.095,0.0110000,0.0960000,0.0004626
54.66,562.595,0.0110000,0.0960000,0.0003287
54.71,563.095,0.0110000,0.0960000,0.0003268
54.76,563.595,0.0110000,0.0960000,0.0002629
54.81,564.095,0.0110000,0.0960000,-0.0000495
54.86,564.595,0.0110000,0.0960000,0.0003929
54.91,565.096,0.0110000,0.0960000,-0.0003310
54.96,565.596,0.0110000,0.0960000,0.0002230
55.01,566.096,0.0110000,0.0960000,0.0002874
55.06,566.596,0.0110000,0.0960000,0.0004910
55.11,567.096,0.0110000,0.0960000,-0.0000043
55.16,567.596,0.0110000,0.0960000,-0.0001968
55.21,568.096,0.0110000,0.0960000,-0.0000065
55.26,568.596,0.0110000,0.0960000,-0.0002876
55.31,569.096,0.0110000,0.0970000,0.0000516
55.36,569.596,0.0110000,0.0970000,0.0005178
55.41,570.096,0.0110000,0.0970000,0.0001527
55.46,570.597,0.0110000,0.0970000,-0.0001626
55.51,571.097,0.0110000,0.0970000,-0.0001773
55.56,571.597,0.0110000,0.0970000,-0.0001545
55.61,572.097,0.0110000,0.0970000,0.0000598
55.66,572.597,0.0110000,0.0970000,-0.0001078
55.71,573.097,0.0110000,0.0970000,0.0002869
55.76,573.597,0.0110000,0.0970000,0.0004704
55.81,574.097,0.0110000,0.0970000,-0.0004969
55.86,574.597,0.0110000,0.0970000,0.0000295
55.91,575.097,0.0110000,0.0980000,0.0004975
55.96,575.597,0.0120000,0.0980000,0.0004734
56.01,576.098,0.0120000,0.0980000,0.0003531
56.06,576.598,0.0120000,0.0980000,0.0004190
56.11,577.098,0.0120000,0.0980000,0.0005163
56.16,577.598,0.0120000,0.0990000,0.0000721
56.21,578.098,0.0120000,0.0990000,0.0004643
56.26,578.598,0.0120000,0.0990000,0.0003718
56.31,579.098,0.0120000,0.0990000,0.0004439
56.36,579.598,0.0120000,0.0990000,0.0003839
56.41,580.098,0.0120000,0.0990000,0.0004246
56.46,580.598,0.0120000,0.0990000,0.0001986
56.51,581.098,0.0120000,0.1000000,0.0000435
56.56,581.598,0.0120000,0.1000000,0.0003084
56.61,582.099,0.0120000,0.1000000,0.0007075
56.66,582.599,0.0120000,0.1000000,0.0001805
56.71,583.099,0.0120000,0.1000000,0.0000812
56.76,583.599,0.0120000,0.1010000,0.0000049
56.81,584.099,0.0120000,0.1010000,0.0004740
56.86,584.599,0.0120000,0.1010000,0.0002072
56.91,585.099,0.0120000,0.1010000,0.0000435
56.96,585.599,0.0120000,0.1010000,0.0004709
57.01,586.099,0.0120000,0.1020000,0.0004462
57.06,586.599,0.0120000,0.1020000,0.0003467
57.11,587.099,0.0120000,0.1020000,0.0001288
57.16,587.6,0.0120000,0.1020000,-0.0006108
57.21,588.1,0.0120000,0.1020000,0.0006944
57.26,588.6,0.0120000,0.1030000,-0.0000967
57.31,589.1,0.0120000,0.1030000,0.0003340
57.36,589.6,0.0120000,0.1030000,-0.0000126
57.4,590,0.0120000,0.1030000,0.0003747