File: R/rHDPE_App/app/www/Output/TGA/Condensed_Data/Resin20_1_.csv
1.01,30,11.658,100.031,0.0069590
1.07,30.5001,11.658,100.033,0.0046842
1.13,31.0002,11.658,100.035,0.0020351
1.19,31.5003,11.659,100.037,0.0020069
1.24,32.0004,11.659,100.039,0.0057369
1.3,32.5004,11.659,100.04,0.0019127
1.36,33.0005,11.659,100.041,0.0018449
1.41,33.5006,11.659,100.042,0.0029507
1.47,34.0007,11.659,100.043,0.0034368
1.52,34.5008,11.659,100.045,0.0022611
1.58,35.0009,11.66,100.046,0.0030465
1.63,35.501,11.66,100.047,0.0014421
1.69,36.0011,11.66,100.048,0.0046062
1.74,36.5012,11.66,100.049,0.0010853
1.79,37.0013,11.66,100.05,0.0032447
1.85,37.5013,11.66,100.051,0.0030881
1.9,38.0014,11.66,100.052,0.0001468
1.96,38.5015,11.66,100.053,0.0018540
2.01,39.0016,11.66,100.054,0.0017533
2.06,39.5017,11.661,100.055,-0.0003404
2.12,40.0018,11.661,100.056,0.0033520
2.17,40.5019,11.661,100.057,0.0028135
2.22,41.002,11.661,100.058,0.0016947
2.27,41.5021,11.661,100.058,0.0018358
2.33,42.0021,11.661,100.059,0.0034740
2.38,42.5022,11.661,100.06,0.0024083
2.43,43.0023,11.661,100.061,0.0006256
2.49,43.5024,11.661,100.062,0.0019210
2.54,44.0025,11.662,100.063,0.0022545
2.59,44.5026,11.662,100.064,0.0014362
2.64,45.0027,11.662,100.065,0.0014825
2.69,45.5028,11.662,100.066,0.0031524
2.74,46.0029,11.662,100.067,0.0030517
2.8,46.5029,11.662,100.068,0.0010949
2.85,47.003,11.662,100.069,0.0021387
2.9,47.5031,11.662,100.07,0.0030829
2.95,48.0032,11.662,100.071,0.0012788
3.01,48.5033,11.663,100.072,0.0017033
3.06,49.0034,11.663,100.073,0.0019846
3.11,49.5035,11.663,100.074,0.0023111
3.16,50.0036,11.663,100.075,0.0014604
3.21,50.5037,11.663,100.076,0.0026358
3.26,51.0038,11.663,100.077,0.0019274
3.31,51.5038,11.663,100.078,0.0007984
3.36,52.0039,11.663,100.079,0.0016430
3.42,52.504,11.663,100.079,0.0021564
3.47,53.0041,11.664,100.081,0.0024823
3.52,53.5042,11.664,100.081,0.0020126
3.57,54.0043,11.664,100.082,0.0024789
3.62,54.5044,11.664,100.083,0.0026169
3.67,55.0045,11.664,100.084,0.0013537
3.72,55.5046,11.664,100.085,0.0025662
3.77,56.0046,11.664,100.086,0.0024259
3.83,56.5047,11.664,100.087,0.0005592
3.88,57.0048,11.664,100.088,0.0019563
3.93,57.5049,11.665,100.089,0.0009306
3.98,58.005,11.665,100.089,0.0023254
4.03,58.5051,11.665,100.09,0.0009296
4.08,59.0052,11.665,100.091,0.0022288
4.13,59.5053,11.665,100.092,0.0022738
4.18,60.0054,11.665,100.092,0.0018067
4.23,60.5054,11.665,100.093,0.0001849
4.28,61.0055,11.665,100.093,0.0009701
4.33,61.5056,11.665,100.094,-0.0000924
4.38,62.0057,11.665,100.094,0.0013849
4.43,62.5058,11.665,100.095,0.0010617
4.48,63.0059,11.665,100.095,0.0014771
4.53,63.506,11.665,100.096,0.0012489
4.58,64.0061,11.665,100.097,0.0022681
4.64,64.5062,11.666,100.098,0.0020831
4.69,65.0063,11.666,100.099,0.0027768
4.74,65.5063,11.666,100.1,0.0019892
4.79,66.0064,11.666,100.101,0.0023557
4.84,66.5065,11.666,100.102,0.0007386
4.89,67.0066,11.666,100.102,0.0012906
4.94,67.5067,11.666,100.103,0.0016567
4.99,68.0068,11.666,100.104,0.0017924
5.04,68.5069,11.666,100.104,0.0020658
5.09,69.007,11.666,100.105,0.0011471
5.14,69.5071,11.667,100.106,0.0014224
5.19,70.0071,11.667,100.106,-0.0002293
5.24,70.5072,11.667,100.107,0.0012360
5.29,71.0073,11.667,100.107,0.0001828
5.34,71.5074,11.667,100.108,0.0008676
5.39,72.0075,11.667,100.108,0.0008693
5.44,72.5076,11.667,100.108,0.0017431
5.49,73.0077,11.667,100.109,0.0019298
5.54,73.5078,11.667,100.11,0.0015172
5.59,74.0079,11.667,100.111,0.0000917
5.64,74.5079,11.667,100.111,0.0013763
5.69,75.008,11.667,100.112,0.0021102
5.74,75.5081,11.667,100.113,0.0016039
5.79,76.0082,11.667,100.114,0.0014227
5.84,76.5083,11.667,100.114,0.0010558
5.89,77.0084,11.668,100.115,0.0014684
5.94,77.5085,11.668,100.115,0.0004118
5.99,78.0086,11.668,100.116,0.0012814
6.04,78.5087,11.668,100.116,0.0005033
6.09,79.0088,11.668,100.116,0.0001370
6.14,79.5088,11.668,100.117,0.0010048
6.19,80.0089,11.668,100.117,0.0010490
6.24,80.509,11.668,100.117,-0.0001369
6.29,81.0091,11.668,100.118,0.0017397
6.34,81.5092,11.668,100.119,0.0015587
6.39,82.0093,11.668,100.119,0.0017438
6.44,82.5094,11.668,100.12,0.0009637
6.49,83.0095,11.668,100.12,0.0011913
6.54,83.5096,11.668,100.121,0.0005493
6.59,84.0096,11.668,100.121,0.0009591
6.64,84.5097,11.668,100.121,0.0009615
6.69,85.0098,11.668,100.122,0.0012828
6.74,85.5099,11.668,100.122,0.0016040
6.79,86.01,11.668,100.123,0.0005958
6.84,86.5101,11.669,100.123,0.0013702
6.89,87.0102,11.669,100.123,0.0010956
6.94,87.5103,11.669,100.123,0.0006384
6.99,88.0104,11.669,100.123,0.0005926
7.04,88.5104,11.669,100.124,0.0008200
7.09,89.0105,11.669,100.124,0.0011855
7.14,89.5106,11.669,100.124,0.0002282
7.19,90.0107,11.669,100.125,0.0012375
7.24,90.5108,11.669,100.126,0.0013767
7.29,91.0109,11.669,100.126,0.0002291
7.34,91.511,11.669,100.126,-0.0003202
7.39,92.0111,11.669,100.126,0.0000914
7.44,92.5112,11.669,100.127,0.0010059
7.49,93.0113,11.669,100.127,-0.0007774
7.54,93.5113,11.669,100.127,0.0008237
7.59,94.0114,11.669,100.127,0.0010069
7.64,94.5115,11.669,100.127,-0.0000458
7.69,95.0116,11.669,100.127,0.0008700
7.74,95.5117,11.669,100.128,0.0002289
7.79,96.0118,11.669,100.128,0.0009617
7.84,96.5119,11.669,100.128,-0.0001836
7.89,97.012,11.669,100.128,0.0009618
7.94,97.5121,11.669,100.128,0.0014651
7.99,98.0121,11.669,100.129,0.0000000
8.04,98.5122,11.669,100.129,0.0005038
8.09,99.0123,11.669,100.129,0.0002749
8.14,99.5124,11.669,100.129,0.0007789
8.19,100.013,11.669,100.129,-0.0001375
8.24,100.513,11.669,100.129,0.0007330
8.29,101.013,11.669,100.13,0.0015124
8.34,101.513,11.669,100.13,0.0012831
8.39,102.013,11.669,100.13,-0.0004122
8.44,102.513,11.669,100.13,0.0005033
8.49,103.013,11.669,100.13,0.0008702
8.54,103.513,11.669,100.131,0.0006414
8.59,104.013,11.669,100.131,0.0006412
8.64,104.513,11.669,100.131,0.0005040
8.69,105.013,11.669,100.131,0.0006411
8.74,105.513,11.669,100.131,-0.0001830
8.79,106.014,11.669,100.131,0.0006866
8.84,106.514,11.669,100.131,-0.0003204
8.89,107.014,11.669,100.131,0.0005491
8.94,107.514,11.67,100.131,-0.0000458
8.99,108.014,11.67,100.132,0.0001374
9.04,108.514,11.67,100.132,-0.0001832
9.09,109.014,11.67,100.132,-0.0000457
9.14,109.514,11.67,100.132,0.0004573
9.19,110.014,11.67,100.132,-0.0005946
9.24,110.514,11.67,100.132,0.0002744
9.29,111.014,11.67,100.132,-0.0005037
9.34,111.515,11.67,100.132,-0.0003205
9.39,112.015,11.67,100.132,-0.0007776
9.44,112.515,11.67,100.132,0.0001830
9.49,113.015,11.67,100.132,0.0005954
9.54,113.515,11.67,100.132,-0.0002749
9.59,114.015,11.67,100.132,-0.0002290
9.64,114.515,11.67,100.132,-0.0001375
9.69,115.015,11.67,100.132,0.0005961
9.74,115.515,11.67,100.132,-0.0005498
9.79,116.015,11.67,100.132,-0.0005961
9.84,116.515,11.67,100.132,-0.0000916
9.89,117.016,11.67,100.132,-0.0008253
9.94,117.516,11.67,100.132,-0.0001375
9.99,118.016,11.67,100.132,0.0001374
10.04,118.516,11.67,100.132,0.0001834
10.09,119.016,11.67,100.132,-0.0010088
10.14,119.516,11.67,100.132,0.0000917
10.19,120.016,11.67,100.132,-0.0002752
10.24,120.516,11.67,100.132,-0.0001376
10.29,121.016,11.67,100.132,-0.0003667
10.34,121.516,11.67,100.132,0.0002752
10.39,122.016,11.67,100.132,-0.0005501
10.44,122.517,11.67,100.132,-0.0000916
10.49,123.017,11.67,100.132,0.0003666
10.54,123.517,11.67,100.132,0.0005500
10.59,124.017,11.67,100.132,-0.0006416
10.64,124.517,11.67,100.132,-0.0002750
10.69,125.017,11.67,100.132,-0.0002751
10.74,125.517,11.67,100.132,0.0004587
10.79,126.017,11.67,100.132,-0.0000917
10.84,126.517,11.67,100.132,0.0000917
10.89,127.017,11.67,100.132,-0.0003210
10.94,127.517,11.67,100.132,0.0001376
10.99,128.018,11.67,100.132,-0.0002291
11.04,128.518,11.67,100.132,0.0009622
11.09,129.018,11.67,100.133,-0.0003664
11.14,129.518,11.67,100.133,-0.0000001
11.19,130.018,11.67,100.133,-0.0000458
11.24,130.518,11.67,100.133,0.0002291
11.29,131.018,11.67,100.133,-0.0000917
11.34,131.518,11.67,100.133,-0.0007330
11.39,132.018,11.67,100.133,-0.0004125
11.44,132.518,11.67,100.133,0.0000457
11.49,133.018,11.67,100.132,-0.0003657
11.54,133.518,11.67,100.132,-0.0011886
11.59,134.019,11.67,100.132,-0.0008688
11.64,134.519,11.67,100.132,-0.0010048
11.69,135.019,11.669,100.131,-0.0004105
11.74,135.519,11.669,100.131,-0.0008670
11.79,136.019,11.669,100.13,-0.0006840
11.84,136.519,11.669,100.13,-0.0020024
11.89,137.019,11.669,100.129,-0.0013651
11.94,137.519,11.669,100.128,-0.0023662
11.99,138.019,11.669,100.127,-0.0018625
12.04,138.519,11.669,100.126,-0.0029045
12.09,139.019,11.669,100.125,-0.0019986
12.14,139.52,11.669,100.124,-0.0027281
12.19,140.02,11.668,100.122,-0.0024529
12.24,140.52,11.668,100.121,-0.0020467
12.29,141.02,11.668,100.12,-0.0014119
12.34,141.52,11.668,100.119,-0.0016849
12.39,142.02,11.668,100.118,-0.0016862
12.44,142.52,11.668,100.117,-0.0020097
12.49,143.02,11.668,100.116,-0.0007779
12.54,143.52,11.668,100.115,-0.0023336
12.59,144.02,11.667,100.114,-0.0011921
12.64,144.52,11.667,100.113,-0.0010108
12.69,145.021,11.667,100.112,-0.0015607
12.74,145.521,11.667,100.111,-0.0012407
12.79,146.021,11.667,100.111,-0.0016556
12.84,146.521,11.667,100.11,-0.0011024
12.89,147.021,11.667,100.109,-0.0021574
12.94,147.521,11.667,100.108,-0.0014683
12.99,148.021,11.667,100.107,-0.0008729
13.04,148.521,11.667,100.107,-0.0021573
13.09,149.021,11.667,100.106,-0.0007396
13.14,149.521,11.666,100.106,-0.0011106
13.19,150.021,11.666,100.105,-0.0011565
13.24,150.522,11.666,100.104,-0.0013859
13.29,151.022,11.666,100.104,-0.0010604
13.34,151.522,11.666,100.103,-0.0012419
13.39,152.022,11.666,100.102,-0.0016529
13.44,152.522,11.666,100.102,-0.0009627
13.49,153.022,11.666,100.101,-0.0013733
13.54,153.522,11.666,100.1,-0.0009611
13.59,154.022,11.666,100.1,-0.0012805
13.64,154.522,11.666,100.099,-0.0011432
13.69,155.022,11.666,100.098,-0.0014628
13.74,155.522,11.666,100.098,-0.0021038
13.79,156.023,11.665,100.097,-0.0014642
13.84,156.523,11.665,100.096,-0.0018303
13.89,157.023,11.665,100.095,-0.0016021
13.94,157.523,11.665,100.095,-0.0019222
13.99,158.023,11.665,100.094,-0.0014195
14.04,158.523,11.665,100.093,-0.0017870
14.09,159.023,11.665,100.092,-0.0016952
14.14,159.523,11.665,100.092,-0.0017877
14.19,160.023,11.665,100.091,-0.0019701
14.24,160.523,11.665,100.09,-0.0016499
14.29,161.023,11.665,100.089,-0.0020628
14.34,161.523,11.664,100.088,-0.0017871
14.39,162.024,11.664,100.087,-0.0026128
14.44,162.524,11.664,100.086,-0.0021546
14.49,163.024,11.664,100.085,-0.0021550
14.54,163.524,11.664,100.084,-0.0018800
14.59,164.024,11.664,100.083,-0.0024285
14.64,164.524,11.664,100.082,-0.0020623
14.69,165.024,11.664,100.081,-0.0025211
14.74,165.524,11.664,100.08,-0.0019701
14.79,166.024,11.663,100.079,-0.0022897
14.84,166.524,11.663,100.078,-0.0022906
14.89,167.024,11.663,100.077,-0.0025659
14.94,167.525,11.663,100.076,-0.0025197
14.99,168.025,11.663,100.075,-0.0020159
15.04,168.525,11.663,100.074,-0.0022909
15.09,169.025,11.663,100.073,-0.0022448
15.14,169.525,11.663,100.072,-0.0024743
15.19,170.025,11.662,100.07,-0.0024737
15.24,170.525,11.662,100.069,-0.0027027
15.29,171.025,11.662,100.068,-0.0022904
15.34,171.525,11.662,100.067,-0.0027936
15.39,172.025,11.662,100.066,-0.0021061
15.44,172.525,11.662,100.065,-0.0027936
15.49,173.026,11.662,100.064,-0.0028846
15.54,173.526,11.661,100.062,-0.0027468
15.59,174.026,11.661,100.061,-0.0023827
15.64,174.526,11.661,100.06,-0.0032991
15.69,175.026,11.661,100.058,-0.0024737
15.74,175.526,11.661,100.057,-0.0028406
15.79,176.026,11.661,100.056,-0.0024739
15.84,176.526,11.661,100.055,-0.0033440
15.89,177.026,11.66,100.053,-0.0026571
15.94,177.526,11.66,100.052,-0.0031153
15.99,178.026,11.66,100.051,-0.0024751
16.04,178.527,11.66,100.049,-0.0027487
16.09,179.027,11.66,100.048,-0.0030220
16.14,179.527,11.66,100.047,-0.0027982
16.19,180.027,11.659,100.045,-0.0029739
16.24,180.527,11.659,100.044,-0.0023352
16.29,181.027,11.659,100.043,-0.0025649
16.34,181.527,11.659,100.041,-0.0028867
16.39,182.027,11.659,100.04,-0.0025201
16.44,182.527,11.659,100.039,-0.0022915
16.5,183.027,11.659,100.037,-0.0029809
16.55,183.527,11.658,100.036,-0.0030275
16.6,184.028,11.658,100.035,-0.0036690
16.65,184.528,11.658,100.033,-0.0027964
16.7,185.028,11.658,100.032,-0.0029794
16.75,185.528,11.658,100.03,-0.0030720
16.8,186.028,11.658,100.029,-0.0034378
16.85,186.528,11.657,100.027,-0.0031651
16.9,187.028,11.657,100.025,-0.0034425
16.95,187.528,11.657,100.024,-0.0030810
17,188.028,11.657,100.022,-0.0034918
17.05,188.528,11.657,100.021,-0.0030686
17.09,189.028,11.656,100.019,-0.0031588
17.14,189.528,11.656,100.018,-0.0028846
17.19,190.029,11.656,100.016,-0.0032979
17.24,190.529,11.656,100.015,-0.0032518
17.29,191.029,11.656,100.013,-0.0029754
17.34,191.529,11.656,100.012,-0.0030663
17.39,192.029,11.655,100.01,-0.0034325
17.44,192.529,11.655,100.009,-0.0028364
17.49,193.029,11.655,100.007,-0.0028833
17.54,193.529,11.655,100.005,-0.0031121
17.59,194.029,11.655,100.004,-0.0031651
17.64,194.529,11.654,100.002,-0.0031159
17.69,195.029,11.654,100.001,-0.0038426
17.74,195.53,11.654,99.999,-0.0030211
17.79,196.03,11.654,99.997,-0.0031127
17.84,196.53,11.654,99.995,-0.0030231
17.89,197.03,11.653,99.994,-0.0036186
17.94,197.53,11.653,99.992,-0.0032065
18,198.03,11.653,99.99,-0.0029772
18.05,198.53,11.653,99.988,-0.0036647
18.1,199.03,11.653,99.987,-0.0033883
18.15,199.53,11.652,99.985,-0.0033892
18.2,200.03,11.652,99.983,-0.0037563
18.25,200.53,11.652,99.981,-0.0039835
18.3,201.031,11.652,99.979,-0.0031593
18.35,201.531,11.652,99.978,-0.0032976
18.4,202.031,11.651,99.976,-0.0032051
18.45,202.531,11.651,99.974,-0.0038021
18.5,203.031,11.651,99.973,-0.0035282
18.55,203.531,11.651,99.971,-0.0036205
18.6,204.031,11.651,99.969,-0.0033883
18.65,204.531,11.65,99.967,-0.0033883
18.7,205.031,11.65,99.965,-0.0038923
18.75,205.531,11.65,99.963,-0.0034348
18.8,206.031,11.65,99.961,-0.0039847
18.85,206.532,11.649,99.96,-0.0035266
18.9,207.032,11.649,99.958,-0.0040335
18.95,207.532,11.649,99.956,-0.0043948
19,208.032,11.649,99.954,-0.0036163
19.05,208.532,11.649,99.952,-0.0038451
19.1,209.032,11.648,99.95,-0.0040739
19.15,209.532,11.648,99.948,-0.0042567
19.2,210.032,11.648,99.947,-0.0040770
19.25,210.532,11.648,99.945,-0.0037095
19.3,211.032,11.648,99.943,-0.0040751
19.35,211.532,11.647,99.941,-0.0037114
19.4,212.033,11.647,99.939,-0.0034808
19.45,212.533,11.647,99.937,-0.0041667
19.5,213.033,11.647,99.935,-0.0033908
19.55,213.533,11.646,99.933,-0.0032101
19.6,214.033,11.646,99.931,-0.0043575
19.65,214.533,11.646,99.929,-0.0039450
19.7,215.033,11.646,99.927,-0.0037190
19.75,215.533,11.646,99.926,-0.0035354
19.8,216.033,11.645,99.924,-0.0040379
19.85,216.533,11.645,99.922,-0.0036681
19.9,217.033,11.645,99.92,-0.0030728
19.95,217.533,11.645,99.918,-0.0044483
20,218.034,11.644,99.916,-0.0034397
20.05,218.534,11.644,99.914,-0.0037156
20.1,219.034,11.644,99.912,-0.0042202
20.15,219.534,11.644,99.91,-0.0038968
20.2,220.034,11.643,99.908,-0.0044934
20.25,220.534,11.643,99.906,-0.0040356
20.3,221.034,11.643,99.903,-0.0041720
20.35,221.534,11.643,99.902,-0.0046318
20.4,222.034,11.642,99.9,-0.0043119
20.45,222.534,11.642,99.897,-0.0045863
20.5,223.034,11.642,99.895,-0.0044475
20.55,223.535,11.642,99.893,-0.0037139
20.6,224.035,11.641,99.891,-0.0048588
20.65,224.535,11.641,99.889,-0.0044447
20.7,225.035,11.641,99.887,-0.0044462
20.75,225.535,11.641,99.885,-0.0043080
20.8,226.035,11.641,99.883,-0.0045342
20.85,226.535,11.64,99.88,-0.0043507
20.9,227.035,11.64,99.878,-0.0042144
20.95,227.535,11.64,99.876,-0.0042614
21,228.035,11.64,99.874,-0.0045330
21.05,228.535,11.639,99.872,-0.0038919
21.1,229.036,11.639,99.87,-0.0036640
21.15,229.536,11.639,99.868,-0.0041198
21.2,230.036,11.639,99.866,-0.0038920
21.25,230.536,11.638,99.864,-0.0043510
21.3,231.036,11.638,99.862,-0.0045330
21.35,231.536,11.638,99.86,-0.0051754
21.4,232.036,11.638,99.857,-0.0043984
21.45,232.536,11.637,99.855,-0.0044447
21.5,233.036,11.637,99.853,-0.0049464
21.55,233.536,11.637,99.851,-0.0040762
21.6,234.036,11.637,99.849,-0.0039872
21.65,234.537,11.636,99.846,-0.0048099
21.7,235.037,11.636,99.844,-0.0041693
21.75,235.537,11.636,99.842,-0.0040777
21.8,236.037,11.636,99.84,-0.0038927
21.85,236.537,11.635,99.837,-0.0045321
21.9,237.037,11.635,99.835,-0.0044421
21.95,237.537,11.635,99.833,-0.0041224
22,238.037,11.634,99.831,-0.0047161
22.05,238.537,11.634,99.829,-0.0040301
22.1,239.037,11.634,99.827,-0.0045371
22.15,239.537,11.634,99.824,-0.0049015
22.2,240.038,11.633,99.822,-0.0048077
22.25,240.538,11.633,99.82,-0.0041254
22.3,241.038,11.633,99.818,-0.0040356
22.35,241.538,11.633,99.816,-0.0048611
22.4,242.038,11.632,99.813,-0.0044926
22.45,242.538,11.632,99.811,-0.0049074
22.5,243.038,11.632,99.809,-0.0046309
22.55,243.538,11.632,99.807,-0.0045838
22.6,244.038,11.631,99.804,-0.0044922
22.65,244.538,11.631,99.802,-0.0043538
22.7,245.038,11.631,99.8,-0.0043546
22.75,245.538,11.631,99.797,-0.0050394
22.8,246.039,11.63,99.795,-0.0045838
22.85,246.539,11.63,99.793,-0.0041728
22.9,247.039,11.63,99.791,-0.0046772
22.95,247.539,11.63,99.788,-0.0048200
23,248.039,11.629,99.786,-0.0048107
23.05,248.539,11.629,99.784,-0.0046725
23.1,249.039,11.629,99.782,-0.0046266
23.15,249.539,11.628,99.779,-0.0046738
23.2,250.039,11.628,99.777,-0.0044913
23.25,250.539,11.628,99.775,-0.0048108
23.3,251.039,11.628,99.772,-0.0043518
23.35,251.54,11.627,99.77,-0.0045817
23.4,252.04,11.627,99.768,-0.0049918
23.45,252.54,11.627,99.765,-0.0050353
23.5,253.04,11.627,99.763,-0.0044891
23.55,253.54,11.626,99.76,-0.0049931
23.6,254.04,11.626,99.758,-0.0045330
23.65,254.54,11.626,99.756,-0.0050380
23.7,255.04,11.625,99.753,-0.0045779
23.75,255.54,11.625,99.751,-0.0053557
23.8,256.04,11.625,99.748,-0.0048993
23.85,256.54,11.625,99.746,-0.0048104
23.9,257.041,11.624,99.743,-0.0049020
23.95,257.541,11.624,99.741,-0.0053591
24,258.041,11.624,99.739,-0.0046703
24.05,258.541,11.623,99.736,-0.0056361
24.1,259.041,11.623,99.734,-0.0049021
24.15,259.541,11.623,99.731,-0.0049513
24.2,260.041,11.623,99.729,-0.0049983
24.25,260.541,11.622,99.726,-0.0052266
24.3,261.041,11.622,99.724,-0.0055454
24.35,261.541,11.622,99.721,-0.0047679
24.4,262.041,11.621,99.719,-0.0054995
24.45,262.542,11.621,99.716,-0.0049908
24.5,263.042,11.621,99.714,-0.0052198
24.55,263.542,11.621,99.711,-0.0053143
24.6,264.042,11.62,99.709,-0.0053601
24.65,264.542,11.62,99.706,-0.0052705
24.7,265.042,11.62,99.704,-0.0050347
24.75,265.542,11.619,99.701,-0.0049451
24.8,266.042,11.619,99.699,-0.0052168
24.85,266.542,11.619,99.696,-0.0052198
24.9,267.042,11.618,99.694,-0.0056746
24.95,267.542,11.618,99.691,-0.0055830
25,268.043,11.618,99.688,-0.0054487
25.05,268.543,11.618,99.686,-0.0050329
25.1,269.043,11.617,99.683,-0.0056716
25.15,269.543,11.617,99.68,-0.0052627
25.2,270.043,11.617,99.678,-0.0051235
25.25,270.543,11.616,99.675,-0.0047601
25.3,271.043,11.616,99.673,-0.0053601
25.35,271.543,11.616,99.67,-0.0054029
25.4,272.043,11.615,99.667,-0.0055891
25.45,272.543,11.615,99.665,-0.0049936
25.5,273.043,11.615,99.662,-0.0059556
25.55,273.543,11.614,99.659,-0.0055963
25.61,274.044,11.614,99.657,-0.0059633
25.66,274.544,11.614,99.654,-0.0051788
25.71,275.044,11.614,99.651,-0.0056371
25.76,275.544,11.613,99.649,-0.0053620
25.81,276.044,11.613,99.646,-0.0060472
25.86,276.544,11.613,99.643,-0.0054487
25.91,277.044,11.612,99.64,-0.0056298
25.96,277.544,11.612,99.638,-0.0055403
26.01,278.044,11.612,99.635,-0.0058630
26.06,278.544,11.611,99.632,-0.0054915
26.11,279.044,11.611,99.629,-0.0059491
26.16,279.545,11.611,99.627,-0.0058150
26.21,280.045,11.61,99.624,-0.0060406
26.26,280.545,11.61,99.621,-0.0052656
26.31,281.045,11.61,99.618,-0.0063645
26.36,281.545,11.609,99.616,-0.0058576
26.41,282.045,11.609,99.613,-0.0059087
26.46,282.545,11.609,99.61,-0.0054527
26.51,283.045,11.608,99.607,-0.0057266
26.56,283.545,11.608,99.604,-0.0059110
26.61,284.045,11.608,99.602,-0.0054996
26.66,284.545,11.607,99.599,-0.0059578
26.71,285.046,11.607,99.596,-0.0057298
26.76,285.546,11.607,99.593,-0.0055912
26.81,286.046,11.606,99.591,-0.0056349
26.86,286.546,11.606,99.588,-0.0060932
26.91,287.046,11.606,99.585,-0.0056319
26.96,287.546,11.606,99.582,-0.0052674
27.01,288.046,11.605,99.58,-0.0055902
27.06,288.546,11.605,99.577,-0.0058150
27.11,289.046,11.605,99.574,-0.0057692
27.16,289.546,11.604,99.571,-0.0059982
27.21,290.046,11.604,99.568,-0.0054517
27.26,290.547,11.604,99.565,-0.0058641
27.31,291.047,11.603,99.563,-0.0051769
27.36,291.547,11.603,99.56,-0.0061377
27.41,292.047,11.603,99.557,-0.0057266
27.46,292.547,11.602,99.554,-0.0056829
27.51,293.047,11.602,99.551,-0.0050412
27.56,293.547,11.602,99.549,-0.0057735
27.61,294.047,11.601,99.546,-0.0058181
27.66,294.547,11.601,99.543,-0.0053611
27.71,295.047,11.601,99.54,-0.0063244
27.76,295.547,11.6,99.537,-0.0059089
27.81,296.048,11.6,99.535,-0.0060014
27.86,296.548,11.6,99.532,-0.0056797
27.91,297.048,11.599,99.529,-0.0058150
27.96,297.548,11.599,99.526,-0.0060920
28.01,298.048,11.599,99.523,-0.0055403
28.06,298.548,11.598,99.52,-0.0057692
28.11,299.048,11.598,99.518,-0.0053143
28.16,299.548,11.598,99.515,-0.0054029
28.21,300.048,11.597,99.512,-0.0055383
28.26,300.548,11.597,99.509,-0.0057661
28.31,301.048,11.597,99.506,-0.0051282
28.36,301.548,11.596,99.504,-0.0054029
28.41,302.049,11.596,99.501,-0.0055403
28.46,302.549,11.596,99.498,-0.0054029
28.51,303.049,11.595,99.495,-0.0049908
28.56,303.549,11.595,99.493,-0.0057714
28.61,304.049,11.595,99.49,-0.0050824
28.66,304.549,11.594,99.487,-0.0057234
28.71,305.049,11.594,99.484,-0.0048993
28.76,305.549,11.594,99.481,-0.0055861
28.81,306.049,11.593,99.478,-0.0059098
28.86,306.549,11.593,99.476,-0.0056808
28.91,307.049,11.593,99.473,-0.0061846
28.96,307.55,11.592,99.47,-0.0056796
29.01,308.05,11.592,99.467,-0.0059982
29.06,308.55,11.592,99.464,-0.0058172
29.11,309.05,11.591,99.461,-0.0058608
29.16,309.55,11.591,99.458,-0.0058576
29.21,310.05,11.591,99.456,-0.0060472
29.26,310.55,11.59,99.453,-0.0059524
29.31,311.05,11.59,99.45,-0.0056829
29.36,311.55,11.59,99.447,-0.0058204
29.41,312.05,11.589,99.444,-0.0060472
29.46,312.55,11.589,99.441,-0.0060015
29.51,313.051,11.589,99.439,-0.0057276
29.56,313.551,11.588,99.436,-0.0056808
29.61,314.051,11.588,99.433,-0.0052676
29.66,314.551,11.588,99.43,-0.0053620
29.71,315.051,11.587,99.427,-0.0054974
29.76,315.551,11.587,99.424,-0.0054526
29.81,316.051,11.587,99.422,-0.0059544
29.86,316.551,11.586,99.419,-0.0056319
29.91,317.051,11.586,99.416,-0.0056340
29.96,317.551,11.586,99.413,-0.0061355
30.01,318.051,11.585,99.41,-0.0057662
30.06,318.552,11.585,99.407,-0.0059982
30.11,319.052,11.585,99.404,-0.0056288
30.16,319.552,11.584,99.401,-0.0056746
30.21,320.052,11.584,99.398,-0.0059982
30.26,320.552,11.584,99.395,-0.0058183
30.31,321.052,11.583,99.392,-0.0055403
30.36,321.552,11.583,99.389,-0.0064560
30.41,322.052,11.583,99.386,-0.0060943
30.46,322.552,11.582,99.383,-0.0063187
30.51,323.052,11.582,99.38,-0.0066850
30.56,323.552,11.582,99.377,-0.0058129
30.61,324.053,11.581,99.374,-0.0061355
30.66,324.553,11.581,99.371,-0.0064935
30.71,325.053,11.581,99.368,-0.0063164
30.76,325.553,11.58,99.365,-0.0058576
30.81,326.053,11.58,99.362,-0.0062238
30.86,326.553,11.579,99.359,-0.0059035
30.91,327.053,11.579,99.356,-0.0059044
30.96,327.553,11.579,99.353,-0.0058118
31.01,328.053,11.578,99.35,-0.0060897
31.06,328.553,11.578,99.347,-0.0062729
31.11,329.053,11.578,99.344,-0.0057725
31.16,329.553,11.577,99.341,-0.0059600
31.21,330.054,11.577,99.338,-0.0057725
31.26,330.554,11.577,99.335,-0.0057713
31.31,331.054,11.576,99.332,-0.0059087
31.36,331.554,11.576,99.329,-0.0056299
31.41,332.054,11.576,99.326,-0.0061813
31.46,332.554,11.575,99.323,-0.0057692
31.51,333.054,11.575,99.32,-0.0064103
31.56,333.554,11.575,99.316,-0.0060440
31.61,334.054,11.574,99.313,-0.0059503
31.66,334.554,11.574,99.31,-0.0058150
31.71,335.054,11.573,99.307,-0.0063187
31.76,335.555,11.573,99.304,-0.0065476
31.81,336.055,11.573,99.301,-0.0060897
31.86,336.555,11.572,99.298,-0.0064983
31.91,337.055,11.572,99.294,-0.0059066
31.96,337.555,11.572,99.291,-0.0059970
32.01,338.055,11.571,99.288,-0.0058150
32.06,338.555,11.571,99.285,-0.0065018
32.11,339.055,11.57,99.282,-0.0061813
32.16,339.555,11.57,99.278,-0.0062763
32.21,340.055,11.57,99.275,-0.0068644
32.26,340.555,11.569,99.272,-0.0055372
32.31,341.056,11.569,99.269,-0.0064525
32.36,341.556,11.569,99.266,-0.0064560
32.41,342.056,11.568,99.262,-0.0068186
32.46,342.556,11.568,99.259,-0.0059099
32.51,343.056,11.567,99.256,-0.0062271
32.56,343.556,11.567,99.253,-0.0065911
32.61,344.056,11.567,99.249,-0.0064959
32.66,344.556,11.566,99.246,-0.0061757
32.71,345.056,11.566,99.243,-0.0067741
32.76,345.556,11.566,99.239,-0.0059949
32.81,346.056,11.565,99.236,-0.0059927
32.86,346.557,11.565,99.233,-0.0065428
32.91,347.057,11.564,99.23,-0.0067246
32.96,347.557,11.564,99.226,-0.0063598
33.01,348.057,11.564,99.223,-0.0065451
33.06,348.557,11.563,99.219,-0.0065054
33.11,349.057,11.563,99.216,-0.0066887
33.16,349.557,11.562,99.213,-0.0069139
33.21,350.057,11.562,99.209,-0.0068732
33.26,350.557,11.562,99.206,-0.0066923
33.31,351.057,11.561,99.202,-0.0070539
33.36,351.557,11.561,99.199,-0.0065055
33.41,352.058,11.56,99.195,-0.0069190
33.46,352.558,11.56,99.192,-0.0068250
33.51,353.058,11.56,99.188,-0.0068706
33.56,353.558,11.559,99.185,-0.0071480
33.61,354.058,11.559,99.181,-0.0066873
33.66,354.558,11.558,99.177,-0.0070513
33.71,355.058,11.558,99.174,-0.0069165
33.76,355.558,11.557,99.17,-0.0075508
33.81,356.058,11.557,99.167,-0.0071469
33.86,356.558,11.557,99.163,-0.0072802
33.91,357.058,11.556,99.159,-0.0071468
33.96,357.558,11.556,99.156,-0.0073260
34.01,358.059,11.555,99.152,-0.0070513
34.06,358.559,11.555,99.148,-0.0076049
34.11,359.059,11.555,99.145,-0.0074176
34.16,359.559,11.554,99.141,-0.0070997
34.21,360.059,11.554,99.137,-0.0071886
34.26,360.559,11.553,99.134,-0.0076049
34.31,361.059,11.553,99.13,-0.0078325
34.36,361.559,11.552,99.126,-0.0071927
34.41,362.059,11.552,99.122,-0.0073759
34.46,362.559,11.551,99.119,-0.0071429
34.51,363.059,11.551,99.115,-0.0077881
34.56,363.56,11.551,99.111,-0.0077796
34.61,364.06,11.55,99.107,-0.0080542
34.66,364.56,11.55,99.103,-0.0083699
34.71,365.06,11.549,99.099,-0.0076923
34.76,365.56,11.549,99.095,-0.0076923
34.81,366.06,11.548,99.091,-0.0087043
34.86,366.56,11.548,99.086,-0.0088876
34.91,367.06,11.547,99.082,-0.0087060
34.96,367.56,11.547,99.078,-0.0082920
35.01,368.06,11.546,99.074,-0.0082906
35.06,368.56,11.546,99.069,-0.0086144
35.11,369.061,11.545,99.065,-0.0076967
35.16,369.561,11.545,99.061,-0.0084754
35.21,370.061,11.544,99.056,-0.0086619
35.26,370.561,11.544,99.052,-0.0085701
35.31,371.061,11.543,99.048,-0.0088468
35.36,371.561,11.543,99.043,-0.0089450
35.41,372.061,11.542,99.039,-0.0086696
35.46,372.561,11.542,99.034,-0.0092202
35.51,373.061,11.541,99.029,-0.0091352
35.56,373.561,11.541,99.025,-0.0090418
35.61,374.061,11.54,99.02,-0.0090023
35.66,374.562,11.539,99.016,-0.0095924
35.71,375.062,11.539,99.011,-0.0094954
35.76,375.562,11.538,99.006,-0.0095290
35.81,376.062,11.538,99.001,-0.0098353
35.86,376.562,11.537,98.996,-0.0095943
35.91,377.062,11.537,98.991,-0.0096348
35.96,377.562,11.536,98.986,-0.0097959
36.01,378.062,11.535,98.981,-0.0101548
36.06,378.562,11.535,98.976,-0.0099636
36.11,379.062,11.534,98.971,-0.0099583
36.16,379.562,11.534,98.966,-0.0102329
36.21,380.063,11.533,98.96,-0.0106499
36.26,380.563,11.532,98.955,-0.0106597
36.31,381.063,11.532,98.95,-0.0110301
36.36,381.563,11.531,98.944,-0.0111749
36.41,382.063,11.531,98.939,-0.0119526
36.46,382.563,11.53,98.933,-0.0115279
36.51,383.063,11.529,98.927,-0.0112846
36.56,383.563,11.528,98.922,-0.0118438
36.61,384.063,11.528,98.916,-0.0121683
36.66,384.563,11.527,98.91,-0.0119048
36.71,385.063,11.526,98.904,-0.0122823
36.76,385.563,11.526,98.898,-0.0121426
36.81,386.064,11.525,98.892,-0.0122823
36.86,386.564,11.524,98.885,-0.0126374
36.91,387.064,11.524,98.879,-0.0131482
36.96,387.564,11.523,98.872,-0.0124470
37.01,388.064,11.522,98.866,-0.0127631
37.06,388.564,11.521,98.859,-0.0139118
37.11,389.064,11.52,98.853,-0.0130904
37.16,389.564,11.52,98.846,-0.0135989
37.21,390.064,11.519,98.839,-0.0140289
37.26,390.564,11.518,98.832,-0.0140619
37.31,391.064,11.517,98.825,-0.0138813
37.36,391.565,11.516,98.817,-0.0147113
37.41,392.065,11.515,98.81,-0.0150696
37.46,392.565,11.515,98.802,-0.0150779
37.51,393.065,11.514,98.794,-0.0152154
37.56,393.565,11.513,98.787,-0.0154446
37.61,394.065,11.512,98.779,-0.0160862
37.66,394.565,11.511,98.77,-0.0161868
37.71,395.065,11.51,98.762,-0.0171007
37.76,395.565,11.509,98.753,-0.0170944
37.81,396.065,11.508,98.745,-0.0177786
37.86,396.565,11.507,98.736,-0.0180960
37.91,397.066,11.506,98.726,-0.0180303
37.96,397.566,11.505,98.717,-0.0183541
38.01,398.066,11.504,98.708,-0.0190934
38.06,398.566,11.502,98.698,-0.0197730
38.11,399.066,11.501,98.688,-0.0202308
38.16,399.566,11.5,98.678,-0.0210430
38.21,400.066,11.499,98.667,-0.0208295
38.26,400.566,11.498,98.657,-0.0217332
38.31,401.066,11.496,98.646,-0.0214626
38.36,401.566,11.495,98.635,-0.0221154
38.41,402.066,11.494,98.624,-0.0227023
38.46,402.567,11.492,98.612,-0.0236134
38.51,403.067,11.491,98.6,-0.0241848
38.56,403.567,11.49,98.588,-0.0243678
38.61,404.067,11.488,98.576,-0.0256410
38.66,404.567,11.487,98.563,-0.0258700
38.71,405.067,11.485,98.55,-0.0259158
38.76,405.567,11.484,98.537,-0.0266795
38.81,406.067,11.482,98.523,-0.0276863
38.86,406.567,11.48,98.509,-0.0278286
38.91,407.067,11.479,98.495,-0.0285048
38.96,407.567,11.477,98.48,-0.0295625
39.01,408.068,11.475,98.465,-0.0302031
39.06,408.568,11.474,98.45,-0.0307523
39.11,409.068,11.472,98.434,-0.0312614
39.16,409.568,11.47,98.419,-0.0321429
39.21,410.068,11.468,98.402,-0.0329093
39.26,410.568,11.466,98.386,-0.0338642
39.31,411.068,11.464,98.369,-0.0344007
39.36,411.568,11.462,98.352,-0.0348252
39.41,412.068,11.46,98.334,-0.0355901
39.46,412.568,11.458,98.316,-0.0369761
39.51,413.068,11.456,98.298,-0.0372505
39.56,413.568,11.454,98.279,-0.0385390
39.61,414.069,11.451,98.259,-0.0399890
39.66,414.569,11.449,98.239,-0.0405220
39.71,415.069,11.447,98.218,-0.0422394
39.76,415.569,11.444,98.197,-0.0437718
39.81,416.069,11.441,98.175,-0.0448682
39.86,416.569,11.439,98.152,-0.0463607
39.91,417.069,11.436,98.128,-0.0475385
39.96,417.569,11.433,98.104,-0.0489657
40.01,418.069,11.43,98.079,-0.0511624
40.06,418.569,11.427,98.053,-0.0530844
40.11,419.069,11.424,98.026,-0.0550366
40.16,419.57,11.421,97.998,-0.0565018
40.21,420.07,11.417,97.969,-0.0594694
40.26,420.57,11.414,97.939,-0.0604994
40.31,421.07,11.41,97.908,-0.0641731
40.36,421.57,11.407,97.875,-0.0663526
40.41,422.07,11.403,97.841,-0.0690302
40.46,422.57,11.399,97.806,-0.0718012
40.51,423.07,11.394,97.77,-0.0747711
40.56,423.57,11.39,97.731,-0.0782537
40.61,424.07,11.385,97.691,-0.0818223
40.66,424.57,11.38,97.65,-0.0856215
40.71,425.071,11.375,97.605,-0.0972985
40.76,425.571,11.369,97.556,-0.0978960
40.81,426.071,11.363,97.505,-0.1090640
40.86,426.571,11.357,97.449,-0.1101010
40.91,427.071,11.35,97.388,-0.1220500
40.96,427.571,11.342,97.322,-0.1358970
41.01,428.071,11.334,97.249,-0.1505870
41.06,428.571,11.324,97.17,-0.1612280
41.11,429.071,11.315,97.086,-0.1655960
41.16,429.571,11.305,97.001,-0.1730280
41.21,430.071,11.295,96.914,-0.1665140
41.26,430.572,11.285,96.83,-0.1705020
41.31,431.072,11.274,96.741,-0.1800450
41.36,431.572,11.263,96.645,-0.1939100
41.41,432.072,11.251,96.543,-0.2139960
41.46,432.572,11.238,96.433,-0.2314560
41.51,433.072,11.224,96.311,-0.2525170
41.56,433.572,11.209,96.179,-0.2715200
41.61,434.072,11.192,96.034,-0.2914840
41.66,434.572,11.174,95.882,-0.3015750
41.71,435.072,11.156,95.721,-0.3264430
41.76,435.572,11.135,95.549,-0.3447570
41.81,436.073,11.115,95.371,-0.3517870
41.86,436.573,11.093,95.183,-0.3786170
41.91,437.073,11.07,94.988,-0.3771720
41.96,437.573,11.047,94.787,-0.4044810
42.01,438.073,11.023,94.58,-0.4201890
42.06,438.573,10.997,94.362,-0.4421540
42.11,439.073,10.97,94.129,-0.4740080
42.16,439.573,10.941,93.885,-0.4932270
42.21,440.073,10.912,93.63,-0.5187270
42.26,440.573,10.881,93.363,-0.5290290
42.31,441.073,10.849,93.088,-0.5398660
42.36,441.573,10.815,92.8,-0.5674910
42.41,442.074,10.78,92.502,-0.5882780
42.46,442.574,10.744,92.189,-0.6536680
42.51,443.074,10.706,91.862,-0.6177930
42.56,443.574,10.668,91.541,-0.6520050
42.61,444.074,10.629,91.204,-0.6931830
42.66,444.574,10.587,90.846,-0.7356810
42.71,445.074,10.543,90.464,-0.7919280
42.76,445.574,10.497,90.067,-0.7788850
42.81,446.074,10.449,89.659,-0.8338740
42.86,446.574,10.402,89.254,-0.7366500
42.91,447.074,10.359,88.886,-0.7954790
42.96,447.575,10.309,88.459,-0.8519650
43.01,448.075,10.255,87.993,-0.9587640
43.06,448.575,10.199,87.509,-0.9523110
43.11,449.075,10.138,86.994,-1.08136
43.16,449.575,10.075,86.445,-1.14705
43.21,450.075,10.007,85.865,-1.17862
43.26,450.575,9.936,85.261,-1.18073
43.31,451.075,9.867,84.667,-1.28056
43.36,451.575,9.791,84.009,-1.39078
43.41,452.075,9.71,83.319,-1.43037
43.46,452.575,9.625,82.589,-1.50951
43.51,453.076,9.539,81.854,-1.47841
43.56,453.576,9.452,81.105,-1.47491
43.61,454.076,9.359,80.305,-1.69613
43.66,454.576,9.26,79.455,-1.73876
43.71,455.076,9.156,78.56,-1.83824
43.76,455.576,9.046,77.621,-1.95903
43.81,456.076,8.937,76.688,-1.89402
43.86,456.576,8.826,75.731,-1.91667
43.91,457.076,8.712,74.753,-1.99163
43.96,457.576,8.591,73.715,-2.25028
44.01,458.076,8.466,72.643,-2.11386
44.06,458.577,8.338,71.544,-2.38658
44.11,459.077,8.202,70.382,-2.39398
44.16,459.577,8.061,69.168,-2.46023
44.21,460.077,7.925,67.999,-2.35708
44.26,460.577,7.774,66.704,-2.62273
44.31,461.077,7.619,65.377,-2.70277
44.36,461.577,7.467,64.068,-2.69331
44.41,462.077,7.306,62.693,-2.80829
44.46,462.577,7.142,61.281,-2.69008
44.51,463.077,6.977,59.865,-2.8133
44.56,463.577,6.807,58.405,-2.97984
44.61,464.078,6.632,56.905,-3.0672
44.66,464.578,6.456,55.395,-3.03975
44.71,465.078,6.269,53.793,-3.1428
44.76,465.578,6.082,52.186,-3.16682
44.81,466.078,5.89,50.539,-3.3785
44.86,466.578,5.698,48.891,-3.18547
44.91,467.078,5.508,47.258,-3.36393
44.96,467.578,5.306,45.526,-3.37548
45.01,468.078,5.104,43.795,-3.40549
45.06,468.578,4.899,42.032,-3.57768
45.11,469.078,4.692,40.261,-3.69318
45.16,469.578,4.485,38.48,-3.57966
45.21,470.079,4.274,36.676,-3.64378
45.26,470.579,4.064,34.873,-3.56139
45.31,471.079,3.855,33.077,-3.59658
45.36,471.579,3.641,31.243,-3.63495
45.41,472.079,3.434,29.467,-3.55099
45.46,472.579,3.224,27.666,-3.65671
45.51,473.079,3.016,25.876,-3.60882
45.56,473.579,2.818,24.178,-3.44275
45.61,474.079,2.615,22.438,-3.45113
45.66,474.579,2.415,20.725,-3.41119
45.71,475.079,2.221,19.06,-3.25369
45.76,475.58,2.032,17.438,-3.11807
45.81,476.08,1.848,15.858,-3.08922
45.86,476.58,1.677,14.393,-2.90659
45.91,477.08,1.51,12.953,-2.79057
45.96,477.58,1.349,11.579,-2.65278
46.01,478.08,1.198,10.276,-2.46329
46.06,478.58,1.057,9.069,-2.31237
46.11,479.08,0.9250000,7.937,-2.1938
46.16,479.58,0.8050000,6.903,-1.98982
46.21,480.08,0.6980000,5.991,-1.77536
46.26,480.58,0.6000000,5.145,-1.6174
46.31,481.081,0.5130000,4.402,-1.3902
46.36,481.581,0.4400000,3.779,-1.1914
46.41,482.081,0.3770000,3.232,-1.05844
46.46,482.581,0.3240000,2.78,-0.8458930
46.5,483.081,0.2820000,2.418,-0.6462630
46.55,483.581,0.2470000,2.116,-0.5244280
46.6,484.081,0.2180000,1.871,-0.4249570
46.65,484.581,0.1950000,1.676,-0.3446880
46.7,485.081,0.1780000,1.524,-0.2665290
46.75,485.581,0.1640000,1.406,-0.2071790
46.8,486.081,0.1540000,1.318,-0.1573500
46.85,486.582,0.1460000,1.252,-0.1083880
46.91,487.082,0.1400000,1.203,-0.0748389
46.96,487.582,0.1360000,1.17,-0.0569265
47.01,488.082,0.1330000,1.141,-0.0596142
47.06,488.582,0.1290000,1.111,-0.0574443
47.11,489.082,0.1260000,1.084,-0.0516518
47.16,489.582,0.1240000,1.06,-0.0451743
47.21,490.082,0.1210000,1.039,-0.0376395
47.26,490.582,0.1190000,1.022,-0.0311170
47.31,491.082,0.1180000,1.009,-0.0250139
47.36,491.582,0.1160000,0.9980000,-0.0195692
47.41,492.083,0.1150000,0.9890000,-0.0156636
47.46,492.583,0.1140000,0.9820000,-0.0126534
47.51,493.083,0.1140000,0.9770000,-0.0095208
47.56,493.583,0.1130000,0.9720000,-0.0081819
47.61,494.083,0.1130000,0.9690000,-0.0070348
47.66,494.583,0.1130000,0.9660000,-0.0048491
47.71,495.083,0.1120000,0.9640000,-0.0039744
47.76,495.583,0.1120000,0.9620000,-0.0033467
47.81,496.083,0.1120000,0.9600000,-0.0025606
47.86,496.583,0.1120000,0.9590000,-0.0013971
47.91,497.083,0.1120000,0.9590000,-0.0018762
47.96,497.583,0.1120000,0.9580000,-0.0016312
48.01,498.084,0.1120000,0.9570000,-0.0014424
48.06,498.584,0.1110000,0.9570000,-0.0006327
48.11,499.084,0.1110000,0.9560000,-0.0013318
48.16,499.584,0.1110000,0.9560000,-0.0010445
48.21,500.084,0.1110000,0.9550000,-0.0010138
48.26,500.584,0.1110000,0.9550000,-0.0005291
48.31,501.084,0.1110000,0.9550000,-0.0008885
48.36,501.584,0.1110000,0.9550000,-0.0007927
48.41,502.084,0.1110000,0.9550000,-0.0002320
48.46,502.584,0.1110000,0.9550000,-0.0005103
48.51,503.084,0.1110000,0.9540000,0.0000057
48.56,503.585,0.1110000,0.9540000,-0.0000000
48.61,504.085,0.1110000,0.9540000,-0.0000875
48.66,504.585,0.1110000,0.9540000,-0.0001311
48.71,505.085,0.1110000,0.9540000,-0.0000500
48.76,505.585,0.1110000,0.9540000,0.0001297
48.81,506.085,0.1110000,0.9540000,-0.0003115
48.86,506.585,0.1110000,0.9540000,0.0001541
48.91,507.085,0.1110000,0.9540000,-0.0001376
48.96,507.585,0.1110000,0.9540000,-0.0005602
49.01,508.085,0.1110000,0.9540000,-0.0002014
49.06,508.585,0.1110000,0.9530000,0.0000229
49.11,509.086,0.1110000,0.9540000,0.0000439
49.16,509.586,0.1110000,0.9540000,0.0000706
49.21,510.086,0.1110000,0.9530000,-0.0000879
49.26,510.586,0.1110000,0.9530000,-0.0005191
49.31,511.086,0.1110000,0.9530000,-0.0003705
49.36,511.586,0.1110000,0.9530000,0.0000975
49.41,512.086,0.1110000,0.9530000,-0.0001890
49.46,512.586,0.1110000,0.9530000,-0.0003183
49.51,513.086,0.1110000,0.9530000,-0.0005108
49.56,513.586,0.1110000,0.9530000,0.0005223
49.61,514.086,0.1110000,0.9530000,0.0001692
49.66,514.587,0.1110000,0.9530000,-0.0001646
49.71,515.087,0.1110000,0.9520000,-0.0002868
49.76,515.587,0.1110000,0.9520000,-0.0001914
49.81,516.087,0.1110000,0.9520000,0.0000931
49.86,516.587,0.1110000,0.9520000,-0.0002613
49.91,517.087,0.1110000,0.9520000,0.0004041
49.96,517.587,0.1110000,0.9520000,-0.0003088
50.01,518.087,0.1110000,0.9520000,0.0000095
50.06,518.587,0.1110000,0.9520000,-0.0000589
50.11,519.087,0.1110000,0.9520000,-0.0001589
50.16,519.587,0.1110000,0.9510000,-0.0003314
50.21,520.088,0.1110000,0.9510000,0.0004220
50.26,520.588,0.1110000,0.9510000,-0.0002651
50.31,521.088,0.1110000,0.9510000,-0.0006583
50.36,521.588,0.1110000,0.9510000,-0.0001866
50.41,522.088,0.1110000,0.9510000,-0.0001439
50.46,522.588,0.1110000,0.9500000,-0.0005219
50.51,523.088,0.1110000,0.9500000,0.0000093
50.56,523.588,0.1110000,0.9500000,0.0000082
50.61,524.088,0.1110000,0.9500000,0.0000926
50.66,524.588,0.1110000,0.9500000,0.0000233
50.71,525.088,0.1110000,0.9500000,-0.0002784
50.76,525.588,0.1110000,0.9500000,0.0001906
50.81,526.089,0.1110000,0.9500000,0.0001725
50.86,526.589,0.1110000,0.9490000,-0.0001432
50.91,527.089,0.1110000,0.9490000,0.0000912
50.96,527.589,0.1110000,0.9490000,-0.0002361
51.01,528.089,0.1110000,0.9490000,-0.0003967
51.06,528.589,0.1110000,0.9490000,-0.0004704
51.11,529.089,0.1110000,0.9490000,-0.0002462
51.16,529.589,0.1110000,0.9480000,-0.0004127
51.21,530.089,0.1100000,0.9480000,-0.0012032
51.26,530.589,0.1100000,0.9480000,-0.0000711
51.31,531.089,0.1100000,0.9480000,-0.0003248
51.36,531.59,0.1100000,0.9480000,-0.0004457
51.41,532.09,0.1100000,0.9470000,-0.0007859
51.46,532.59,0.1100000,0.9470000,-0.0009962
51.51,533.09,0.1100000,0.9470000,0.0000703
51.56,533.59,0.1100000,0.9470000,-0.0008657
51.61,534.09,0.1100000,0.9470000,-0.0005448
51.66,534.59,0.1100000,0.9460000,-0.0001678
51.71,535.09,0.1100000,0.9460000,-0.0007469
51.76,535.59,0.1100000,0.9460000,-0.0004604
51.81,536.09,0.1100000,0.9460000,-0.0005323
51.86,536.59,0.1100000,0.9460000,-0.0007695
51.91,537.091,0.1100000,0.9450000,-0.0002293
51.96,537.591,0.1100000,0.9450000,-0.0000365
52.01,538.091,0.1100000,0.9450000,-0.0002175
52.06,538.591,0.1100000,0.9450000,-0.0002826
52.11,539.091,0.1100000,0.9450000,-0.0004586
52.16,539.591,0.1100000,0.9440000,-0.0002812
52.21,540.091,0.1100000,0.9440000,0.0000171
52.26,540.591,0.1100000,0.9440000,-0.0002365
52.31,541.091,0.1100000,0.9440000,-0.0004243
52.36,541.591,0.1100000,0.9440000,-0.0003266
52.41,542.091,0.1100000,0.9440000,-0.0005294
52.46,542.592,0.1100000,0.9430000,-0.0000496
52.51,543.092,0.1100000,0.9430000,-0.0002448
52.56,543.592,0.1100000,0.9430000,-0.0002620
52.61,544.092,0.1100000,0.9430000,0.0002048
52.66,544.592,0.1100000,0.9430000,0.0001341
52.71,545.092,0.1100000,0.9430000,-0.0000944
52.76,545.592,0.1100000,0.9420000,-0.0004500
52.81,546.092,0.1100000,0.9420000,-0.0005032
52.86,546.592,0.1100000,0.9420000,0.0002333
52.91,547.092,0.1100000,0.9420000,-0.0004783
52.96,547.592,0.1100000,0.9420000,0.0000783
53.01,548.093,0.1100000,0.9410000,-0.0003602
53.06,548.593,0.1100000,0.9410000,-0.0002881
53.11,549.093,0.1100000,0.9410000,-0.0004362
53.16,549.593,0.1100000,0.9410000,0.0000385
53.21,550.093,0.1100000,0.9410000,-0.0000040
53.26,550.593,0.1100000,0.9410000,-0.0003402
53.31,551.093,0.1100000,0.9400000,0.0000047
53.36,551.593,0.1100000,0.9400000,-0.0007374
53.41,552.093,0.1100000,0.9400000,-0.0005574
53.46,552.593,0.1100000,0.9400000,-0.0006060
53.51,553.093,0.1090000,0.9400000,-0.0003543
53.56,553.593,0.1090000,0.9390000,-0.0002077
53.61,554.094,0.1090000,0.9390000,-0.0006522
53.66,554.594,0.1090000,0.9390000,-0.0005408
53.71,555.094,0.1090000,0.9390000,-0.0007426
53.76,555.594,0.1090000,0.9390000,-0.0002895
53.81,556.094,0.1090000,0.9390000,-0.0006926
53.86,556.594,0.1090000,0.9380000,-0.0000214
53.91,557.094,0.1090000,0.9380000,-0.0000310
53.96,557.594,0.1090000,0.9380000,-0.0006854
54.01,558.094,0.1090000,0.9380000,0.0002994
54.06,558.594,0.1090000,0.9380000,-0.0004640
54.11,559.094,0.1090000,0.9380000,-0.0003123
54.16,559.595,0.1090000,0.9380000,-0.0000606
54.21,560.095,0.1090000,0.9370000,0.0002177
54.26,560.595,0.1090000,0.9370000,0.0001016
54.31,561.095,0.1090000,0.9370000,-0.0009655
54.36,561.595,0.1090000,0.9370000,-0.0005255
54.41,562.095,0.1090000,0.9370000,0.0001313
54.46,562.595,0.1090000,0.9360000,0.0000496
54.51,563.095,0.1090000,0.9360000,-0.0003416
54.56,563.595,0.1090000,0.9360000,-0.0004586
54.61,564.095,0.1090000,0.9360000,0.0001180
54.66,564.595,0.1090000,0.9360000,-0.0000379
54.71,565.096,0.1090000,0.9350000,-0.0006360
54.76,565.596,0.1090000,0.9350000,-0.0001313
54.81,566.096,0.1090000,0.9350000,-0.0004811
54.86,566.596,0.1090000,0.9350000,-0.0004576
54.91,567.096,0.1090000,0.9340000,-0.0008784
54.96,567.596,0.1090000,0.9340000,-0.0005472
55.01,568.096,0.1090000,0.9340000,-0.0004027
55.06,568.596,0.1090000,0.9340000,-0.0003162
55.11,569.096,0.1090000,0.9340000,-0.0006392
55.16,569.596,0.1090000,0.9330000,-0.0004878
55.21,570.096,0.1090000,0.9330000,-0.0006696
55.26,570.597,0.1090000,0.9330000,-0.0008821
55.31,571.097,0.1090000,0.9330000,-0.0001055
55.36,571.597,0.1090000,0.9320000,-0.0005960
55.41,572.097,0.1090000,0.9320000,-0.0007992
55.46,572.597,0.1090000,0.9320000,0.0002712
55.51,573.097,0.1090000,0.9320000,-0.0003322
55.56,573.597,0.1090000,0.9310000,-0.0007750
55.61,574.097,0.1090000,0.9310000,-0.0003384
55.66,574.597,0.1080000,0.9310000,-0.0006287
55.71,575.097,0.1080000,0.9300000,-0.0009255
55.76,575.597,0.1080000,0.9300000,-0.0006519
55.81,576.098,0.1080000,0.9300000,-0.0001664
55.86,576.598,0.1080000,0.9290000,-0.0011415
55.91,577.098,0.1080000,0.9290000,-0.0008679
55.96,577.598,0.1080000,0.9280000,-0.0009823
56.01,578.098,0.1080000,0.9280000,-0.0008200
56.06,578.598,0.1080000,0.9280000,-0.0012461
56.11,579.098,0.1080000,0.9270000,-0.0011726
56.16,579.598,0.1080000,0.9270000,-0.0007198
56.21,580.098,0.1080000,0.9260000,-0.0014458
56.26,580.598,0.1080000,0.9260000,-0.0013559
56.31,581.098,0.1080000,0.9250000,-0.0013884
56.36,581.598,0.1080000,0.9250000,-0.0010126
56.41,582.099,0.1080000,0.9240000,-0.0009584
56.46,582.599,0.1080000,0.9240000,-0.0016537
56.51,583.099,0.1080000,0.9230000,-0.0008671
56.56,583.599,0.1080000,0.9230000,-0.0011340
56.61,584.099,0.1070000,0.9220000,-0.0014776
56.66,584.599,0.1070000,0.9220000,-0.0015073
56.71,585.099,0.1070000,0.9210000,-0.0007793
56.76,585.599,0.1070000,0.9210000,-0.0009878
56.81,586.099,0.1070000,0.9200000,-0.0012708
56.86,586.599,0.1070000,0.9200000,-0.0009276
56.91,587.099,0.1070000,0.9190000,-0.0011118
56.96,587.6,0.1070000,0.9180000,-0.0012992
57.01,588.1,0.1070000,0.9180000,-0.0008181
57.06,588.6,0.1070000,0.9170000,-0.0011567
57.11,589.1,0.1070000,0.9170000,-0.0010883
57.16,589.6,0.1070000,0.9160000,-0.0015161
57.2,590,0.1070000,0.9160000,-0.0010065