File: R/rHDPE_App/app/www/Output/TGA/Condensed_Data/Resin13_1__1.csv
0.6300000,30,11.635,100.014,0.0126719
0.7100000,30.5001,11.636,100.017,0.0088359
0.7800000,31.0002,11.636,100.019,0.0063817
0.8400000,31.5003,11.636,100.022,0.0017540
0.9100000,32.0004,11.637,100.025,0.0005884
0.9700000,32.5004,11.637,100.027,0.0040721
1.03,33.0005,11.637,100.029,0.0050519
1.09,33.5006,11.637,100.03,0.0023151
1.15,34.0007,11.638,100.033,0.0008138
1.21,34.5008,11.638,100.035,-0.0009622
1.27,35.0009,11.638,100.036,0.0066485
1.33,35.501,11.638,100.037,0.0039647
1.38,36.0011,11.638,100.039,0.0002062
1.44,36.5012,11.638,100.04,0.0048078
1.5,37.0013,11.639,100.041,-0.0006597
1.55,37.5013,11.639,100.043,0.0051388
1.61,38.0014,11.639,100.044,-0.0004005
1.66,38.5015,11.639,100.045,0.0040820
1.72,39.0016,11.639,100.046,0.0024802
1.77,39.5017,11.639,100.047,0.0025686
1.82,40.0018,11.639,100.048,0.0034881
1.88,40.5019,11.64,100.049,0.0008807
1.93,41.002,11.64,100.05,0.0017548
1.98,41.5021,11.64,100.051,0.0031588
2.04,42.0021,11.64,100.052,0.0005332
2.09,42.5022,11.64,100.053,0.0014514
2.14,43.0023,11.64,100.054,0.0023626
2.19,43.5024,11.64,100.054,0.0012989
2.25,44.0025,11.64,100.055,-0.0003364
2.3,44.5026,11.64,100.055,0.0021113
2.35,45.0027,11.64,100.056,0.0028268
2.4,45.5028,11.64,100.057,0.0011944
2.46,46.0029,11.641,100.058,0.0003817
2.51,46.5029,11.641,100.058,0.0018101
2.56,47.003,11.641,100.059,0.0023780
2.61,47.5031,11.641,100.06,0.0022795
2.66,48.0032,11.641,100.061,0.0003792
2.71,48.5033,11.641,100.061,0.0009473
2.77,49.0034,11.641,100.062,0.0014665
2.82,49.5035,11.641,100.063,0.0022216
2.87,50.0036,11.641,100.064,0.0017951
2.92,50.5037,11.641,100.064,0.0016530
2.97,51.0038,11.641,100.065,0.0015110
3.03,51.5038,11.642,100.066,0.0026873
3.08,52.0039,11.642,100.067,0.0011758
3.13,52.504,11.642,100.068,0.0010794
3.18,53.0041,11.642,100.069,0.0007027
3.23,53.5042,11.642,100.069,0.0007948
3.28,54.0043,11.642,100.07,0.0009342
3.33,54.5044,11.642,100.07,0.0016814
3.38,55.0045,11.642,100.071,0.0014946
3.44,55.5046,11.642,100.072,0.0011672
3.49,56.0046,11.642,100.072,0.0014937
3.54,56.5047,11.642,100.073,0.0013991
3.59,57.0048,11.642,100.073,0.0011642
3.64,57.5049,11.642,100.074,0.0012103
3.69,58.005,11.643,100.075,0.0013955
3.74,58.5051,11.643,100.075,0.0019514
3.79,59.0052,11.643,100.076,0.0014392
3.84,59.5053,11.643,100.077,0.0011136
3.89,60.0054,11.643,100.077,0.0007883
3.94,60.5054,11.643,100.078,0.0011601
3.99,61.0055,11.643,100.079,0.0010207
4.04,61.5056,11.643,100.079,0.0014372
4.09,62.0057,11.643,100.08,0.0015290
4.14,62.5058,11.643,100.081,0.0018521
4.19,63.0059,11.643,100.082,0.0007868
4.25,63.506,11.643,100.082,0.0010175
4.3,64.0061,11.643,100.083,0.0009254
4.35,64.5062,11.644,100.084,0.0008319
4.4,65.0063,11.644,100.084,0.0006467
4.45,65.5063,11.644,100.085,0.0007848
4.5,66.0064,11.644,100.085,0.0008773
4.55,66.5065,11.644,100.086,0.0010151
4.6,67.0066,11.644,100.086,0.0007381
4.65,67.5067,11.644,100.087,0.0010606
4.7,68.0068,11.644,100.087,0.0008298
4.75,68.5069,11.644,100.088,0.0011520
4.8,69.007,11.644,100.089,0.0012896
4.85,69.5071,11.644,100.089,0.0010130
4.9,70.0071,11.644,100.09,0.0010587
4.95,70.5072,11.644,100.091,0.0009204
5,71.0073,11.644,100.091,0.0011961
5.05,71.5074,11.645,100.092,0.0017017
5.1,72.0075,11.645,100.092,0.0012877
5.15,72.5076,11.645,100.093,0.0015169
5.2,73.0077,11.645,100.094,0.0013786
5.25,73.5078,11.645,100.094,0.0015623
5.3,74.0079,11.645,100.095,0.0011941
5.35,74.5079,11.645,100.095,0.0012405
5.4,75.008,11.645,100.096,0.0010567
5.45,75.5081,11.645,100.096,0.0012397
5.5,76.0082,11.645,100.097,0.0011014
5.55,76.5083,11.645,100.097,0.0000918
5.6,77.0084,11.645,100.098,0.0007796
5.65,77.5085,11.645,100.098,0.0008257
5.7,78.0086,11.645,100.099,0.0006422
5.75,78.5087,11.645,100.099,0.0005960
5.8,79.0088,11.645,100.1,0.0009631
5.85,79.5088,11.645,100.1,0.0011001
5.9,80.0089,11.646,100.1,0.0004585
5.95,80.509,11.646,100.101,0.0009626
6,81.0091,11.646,100.101,0.0006874
6.05,81.5092,11.646,100.102,0.0009626
6.1,82.0093,11.646,100.102,0.0013288
6.15,82.5094,11.646,100.103,0.0010537
6.2,83.0095,11.646,100.103,0.0012345
6.25,83.5096,11.646,100.104,0.0010503
6.3,84.0096,11.646,100.104,0.0012342
6.35,84.5097,11.646,100.105,0.0009155
6.4,85.0098,11.646,100.105,0.0006419
6.45,85.5099,11.646,100.106,0.0004127
6.51,86.01,11.646,100.106,0.0006877
6.56,86.5101,11.646,100.106,0.0014215
6.61,87.0102,11.646,100.107,-0.0001834
6.66,87.5103,11.646,100.107,0.0002752
6.71,88.0104,11.646,100.107,0.0005047
6.76,88.5104,11.646,100.108,0.0014225
6.81,89.0105,11.646,100.108,0.0006884
6.86,89.5106,11.646,100.109,0.0006427
6.91,90.0107,11.647,100.109,0.0007349
6.96,90.5108,11.647,100.109,0.0006423
7.01,91.0109,11.647,100.11,0.0007332
7.06,91.511,11.647,100.11,0.0008707
7.11,92.0111,11.647,100.11,0.0004580
7.16,92.5112,11.647,100.11,0.0005952
7.21,93.0113,11.647,100.111,0.0003663
7.26,93.5113,11.647,100.111,0.0007332
7.31,94.0114,11.647,100.111,0.0002292
7.36,94.5115,11.647,100.112,0.0004582
7.41,95.0116,11.647,100.112,0.0004582
7.46,95.5117,11.647,100.112,0.0003207
7.51,96.0118,11.647,100.113,0.0004122
7.56,96.5119,11.647,100.113,0.0004577
7.61,97.012,11.647,100.113,0.0000000
7.66,97.5121,11.647,100.113,0.0005493
7.71,98.0121,11.647,100.114,0.0002290
7.76,98.5122,11.647,100.114,0.0003206
7.81,99.0123,11.647,100.114,0.0009158
7.86,99.5124,11.647,100.115,0.0005035
7.91,100.013,11.647,100.115,0.0002288
7.96,100.513,11.647,100.115,0.0003660
8.01,101.013,11.647,100.115,0.0005947
8.06,101.513,11.647,100.116,0.0008689
8.11,102.013,11.647,100.116,0.0010515
8.16,102.513,11.647,100.116,0.0005485
8.21,103.013,11.647,100.117,0.0001372
8.26,103.513,11.647,100.117,0.0004118
8.31,104.013,11.647,100.117,0.0002747
8.36,104.513,11.647,100.117,-0.0002288
8.41,105.013,11.647,100.117,0.0003206
8.46,105.513,11.648,100.118,-0.0001836
8.51,106.014,11.648,100.118,0.0003212
8.56,106.514,11.648,100.118,0.0000000
8.61,107.014,11.648,100.118,0.0000917
8.66,107.514,11.648,100.118,-0.0002753
8.71,108.014,11.648,100.118,0.0006884
8.76,108.514,11.648,100.119,0.0004111
8.81,109.014,11.648,100.119,-0.0002280
8.86,109.514,11.648,100.119,0.0001369
8.91,110.014,11.648,100.119,0.0003656
8.96,110.514,11.648,100.119,0.0003202
9.01,111.014,11.648,100.119,0.0002748
9.06,111.515,11.648,100.119,0.0000459
9.11,112.015,11.648,100.119,0.0005045
9.16,112.515,11.648,100.119,0.0002753
9.21,113.015,11.648,100.119,0.0002757
9.26,113.515,11.648,100.119,0.0013313
9.31,114.015,11.648,100.119,0.0001833
9.36,114.515,11.648,100.119,0.0000917
9.41,115.015,11.648,100.119,-0.0002294
9.46,115.515,11.648,100.119,-0.0000919
9.51,116.015,11.648,100.119,-0.0000459
9.56,116.515,11.648,100.119,0.0000457
9.61,117.016,11.648,100.119,0.0000000
9.66,117.516,11.648,100.119,-0.0002743
9.71,118.016,11.648,100.119,-0.0003663
9.76,118.516,11.648,100.12,-0.0001375
9.81,119.016,11.648,100.12,-0.0001376
9.86,119.516,11.648,100.12,-0.0004120
9.91,120.016,11.648,100.119,-0.0005939
9.96,120.516,11.648,100.119,-0.0002284
10.01,121.016,11.648,100.119,-0.0004110
10.06,121.516,11.648,100.119,-0.0004565
10.11,122.016,11.648,100.119,0.0000912
10.16,122.517,11.648,100.119,0.0007758
10.21,123.017,11.648,100.119,-0.0003197
10.26,123.517,11.648,100.119,0.0004566
10.31,124.017,11.648,100.119,-0.0003195
10.36,124.517,11.648,100.119,0.0001369
10.41,125.017,11.648,100.119,-0.0003195
10.46,125.517,11.648,100.119,-0.0001827
10.51,126.017,11.648,100.119,-0.0000914
10.56,126.517,11.648,100.119,-0.0005031
10.61,127.017,11.648,100.119,-0.0001374
10.66,127.517,11.648,100.119,-0.0001831
10.71,128.018,11.648,100.119,-0.0001833
10.76,128.518,11.648,100.119,-0.0004575
10.81,129.018,11.648,100.118,-0.0001367
10.86,129.518,11.648,100.118,-0.0004116
10.91,130.018,11.648,100.118,-0.0001829
10.96,130.518,11.648,100.118,-0.0001825
11.01,131.018,11.648,100.118,-0.0001826
11.06,131.518,11.648,100.118,-0.0006944
11.11,132.018,11.647,100.117,-0.0002365
11.16,132.518,11.647,100.117,-0.0004211
11.21,133.018,11.647,100.117,-0.0000926
11.26,133.518,11.647,100.117,0.0002786
11.31,134.019,11.647,100.117,-0.0000946
11.36,134.519,11.647,100.117,-0.0002793
11.41,135.019,11.647,100.117,-0.0004105
11.46,135.519,11.647,100.117,-0.0003637
11.51,136.019,11.647,100.117,-0.0001361
11.56,136.519,11.647,100.117,-0.0001363
11.61,137.019,11.647,100.117,-0.0002734
11.66,137.519,11.647,100.117,0.0002747
11.71,138.019,11.647,100.117,-0.0001376
11.76,138.519,11.647,100.117,-0.0000917
11.81,139.019,11.647,100.116,0.0000457
11.86,139.52,11.647,100.116,-0.0001825
11.91,140.02,11.647,100.116,0.0002751
11.96,140.52,11.647,100.116,-0.0000913
12.01,141.02,11.647,100.116,0.0001826
12.06,141.52,11.647,100.116,0.0003650
12.11,142.02,11.647,100.116,0.0000457
12.16,142.52,11.647,100.116,0.0004102
12.21,143.02,11.647,100.117,0.0003624
12.26,143.52,11.647,100.117,0.0000001
12.31,144.02,11.647,100.117,-0.0003649
12.36,144.52,11.647,100.117,0.0000000
12.41,145.021,11.647,100.117,-0.0005041
12.46,145.521,11.647,100.117,-0.0007807
12.51,146.021,11.647,100.117,0.0000915
12.56,146.521,11.647,100.117,-0.0001368
12.61,147.021,11.647,100.117,-0.0005026
12.66,147.521,11.647,100.117,0.0000000
12.71,148.021,11.647,100.117,-0.0000918
12.76,148.521,11.647,100.117,-0.0001840
12.81,149.021,11.647,100.116,-0.0002299
12.86,149.521,11.647,100.116,-0.0003661
12.91,150.021,11.647,100.116,-0.0005940
12.96,150.522,11.647,100.115,-0.0004608
13.01,151.022,11.647,100.115,-0.0007382
13.06,151.522,11.647,100.114,-0.0009325
13.11,152.022,11.647,100.114,-0.0012864
13.16,152.522,11.647,100.113,-0.0020055
13.21,153.022,11.647,100.112,-0.0019148
13.26,153.522,11.647,100.111,-0.0022767
13.31,154.022,11.647,100.109,-0.0025028
13.36,154.522,11.646,100.108,-0.0026428
13.41,155.022,11.646,100.107,-0.0029639
13.46,155.522,11.646,100.106,-0.0023688
13.51,156.023,11.646,100.104,-0.0021906
13.56,156.523,11.646,100.103,-0.0024732
13.61,157.023,11.646,100.102,-0.0023352
13.66,157.523,11.646,100.101,-0.0021091
13.71,158.023,11.646,100.1,-0.0019761
13.76,158.523,11.645,100.1,-0.0015152
13.81,159.023,11.645,100.099,-0.0014175
13.86,159.523,11.645,100.098,-0.0016464
13.91,160.023,11.645,100.097,-0.0014138
13.96,160.523,11.645,100.096,-0.0007293
14.01,161.023,11.645,100.096,-0.0015006
14.06,161.523,11.645,100.095,-0.0010456
14.11,162.024,11.645,100.095,-0.0010924
14.16,162.524,11.645,100.094,-0.0016405
14.21,163.024,11.645,100.093,-0.0016761
14.26,163.524,11.645,100.092,-0.0009050
14.31,164.024,11.645,100.092,-0.0014091
14.36,164.524,11.644,100.091,-0.0010961
14.41,165.024,11.644,100.09,-0.0012336
14.46,165.524,11.644,100.09,-0.0012329
14.51,166.024,11.644,100.089,-0.0015544
14.56,166.524,11.644,100.089,-0.0012821
14.61,167.024,11.644,100.088,-0.0012836
14.66,167.525,11.644,100.087,-0.0012850
14.71,168.025,11.644,100.087,-0.0012862
14.76,168.525,11.644,100.086,-0.0015168
14.81,169.025,11.644,100.086,-0.0015182
14.86,169.525,11.644,100.085,-0.0006910
14.91,170.025,11.644,100.085,-0.0017533
14.96,170.525,11.644,100.084,-0.0015197
15.01,171.025,11.644,100.083,-0.0013842
15.06,171.525,11.643,100.083,-0.0010087
15.11,172.025,11.643,100.082,-0.0014325
15.16,172.525,11.643,100.082,-0.0015389
15.21,173.026,11.643,100.081,-0.0014850
15.26,173.526,11.643,100.08,-0.0014696
15.31,174.026,11.643,100.079,-0.0020073
15.36,174.526,11.643,100.079,-0.0015478
15.41,175.026,11.643,100.078,-0.0012770
15.46,175.526,11.643,100.077,-0.0016014
15.51,176.026,11.643,100.077,-0.0010994
15.56,176.526,11.643,100.076,-0.0006425
15.61,177.026,11.643,100.075,-0.0010134
15.66,177.526,11.643,100.075,-0.0012886
15.71,178.026,11.642,100.074,-0.0006439
15.76,178.527,11.642,100.073,-0.0016977
15.81,179.027,11.642,100.073,-0.0017864
15.86,179.527,11.642,100.072,-0.0021072
15.91,180.027,11.642,100.071,-0.0014662
15.96,180.527,11.642,100.07,-0.0020623
16.01,181.027,11.642,100.069,-0.0019694
16.06,181.527,11.642,100.069,-0.0011908
16.11,182.027,11.642,100.068,-0.0018324
16.16,182.527,11.642,100.067,-0.0016960
16.21,183.027,11.642,100.066,-0.0016015
16.26,183.527,11.641,100.065,-0.0010997
16.31,184.028,11.641,100.064,-0.0012905
16.36,184.528,11.641,100.064,-0.0014312
16.42,185.028,11.641,100.063,-0.0012013
16.47,185.528,11.641,100.062,-0.0016577
16.52,186.028,11.641,100.061,-0.0016960
16.57,186.528,11.641,100.06,-0.0011892
16.62,187.028,11.641,100.059,-0.0019612
16.67,187.528,11.641,100.058,-0.0014218
16.72,188.028,11.641,100.058,-0.0007805
16.77,188.528,11.64,100.057,-0.0014744
16.82,189.028,11.64,100.056,-0.0018955
16.87,189.528,11.64,100.055,-0.0012870
16.92,190.029,11.64,100.054,-0.0016026
16.97,190.529,11.64,100.054,-0.0017755
17.02,191.029,11.64,100.053,-0.0014553
17.07,191.529,11.64,100.052,-0.0014937
17.12,192.029,11.64,100.051,-0.0013161
17.17,192.529,11.64,100.05,-0.0013252
17.22,193.029,11.64,100.049,-0.0020830
17.27,193.529,11.639,100.048,-0.0019542
17.32,194.029,11.639,100.047,-0.0016795
17.37,194.529,11.639,100.046,-0.0020192
17.42,195.029,11.639,100.045,-0.0018121
17.47,195.53,11.639,100.044,-0.0021130
17.52,196.03,11.639,100.043,-0.0025219
17.57,196.53,11.639,100.042,-0.0018614
17.62,197.03,11.639,100.041,-0.0030118
17.67,197.53,11.638,100.04,-0.0023318
17.72,198.03,11.638,100.039,-0.0025600
17.77,198.53,11.638,100.037,-0.0026608
17.81,199.03,11.638,100.036,-0.0022441
17.86,199.53,11.638,100.035,-0.0017470
17.91,200.03,11.638,100.034,-0.0015804
17.96,200.53,11.638,100.033,-0.0013228
18.01,201.031,11.638,100.033,-0.0019767
18.06,201.531,11.637,100.031,-0.0018036
18.11,202.031,11.637,100.03,-0.0019988
18.16,202.531,11.637,100.029,-0.0022384
18.22,203.031,11.637,100.028,-0.0019021
18.27,203.531,11.637,100.027,-0.0020282
18.32,204.031,11.637,100.026,-0.0020208
18.37,204.531,11.637,100.025,-0.0019257
18.42,205.031,11.637,100.024,-0.0022028
18.47,205.531,11.636,100.023,-0.0024821
18.52,206.031,11.636,100.021,-0.0023979
18.57,206.532,11.636,100.02,-0.0019595
18.62,207.032,11.636,100.019,-0.0024534
18.67,207.532,11.636,100.018,-0.0029594
18.72,208.032,11.636,100.016,-0.0026106
18.77,208.532,11.636,100.015,-0.0028998
18.82,209.032,11.635,100.014,-0.0026340
18.87,209.532,11.635,100.012,-0.0030655
18.92,210.032,11.635,100.011,-0.0024778
18.97,210.532,11.635,100.01,-0.0028196
19.02,211.032,11.635,100.009,-0.0028582
19.07,211.532,11.635,100.008,-0.0018391
19.12,212.033,11.635,100.007,-0.0025764
19.18,212.533,11.634,100.005,-0.0022305
19.23,213.033,11.634,100.004,-0.0022546
19.28,213.533,11.634,100.003,-0.0017423
19.33,214.033,11.634,100.002,-0.0027115
19.38,214.533,11.634,100.001,-0.0024274
19.43,215.033,11.634,99.999,-0.0023343
19.48,215.533,11.634,99.998,-0.0022897
19.53,216.033,11.633,99.997,-0.0027020
19.58,216.533,11.633,99.996,-0.0029737
19.62,217.033,11.633,99.994,-0.0028365
19.67,217.533,11.633,99.993,-0.0032476
19.72,218.034,11.633,99.991,-0.0028938
19.77,218.534,11.633,99.99,-0.0028514
19.82,219.034,11.632,99.988,-0.0026733
19.87,219.534,11.632,99.987,-0.0027231
19.92,220.034,11.632,99.986,-0.0027710
19.97,220.534,11.632,99.984,-0.0026811
20.02,221.034,11.632,99.983,-0.0026407
20.07,221.534,11.632,99.981,-0.0031862
20.12,222.034,11.631,99.98,-0.0025886
20.17,222.534,11.631,99.979,-0.0031732
20.22,223.034,11.631,99.977,-0.0030344
20.27,223.535,11.631,99.976,-0.0023561
20.32,224.035,11.631,99.974,-0.0029931
20.37,224.535,11.631,99.973,-0.0024084
20.42,225.035,11.631,99.971,-0.0026008
20.47,225.535,11.63,99.97,-0.0030706
20.52,226.035,11.63,99.968,-0.0028713
20.56,226.535,11.63,99.967,-0.0030317
20.61,227.035,11.63,99.965,-0.0031703
20.66,227.535,11.63,99.964,-0.0027796
20.71,228.035,11.629,99.963,-0.0029096
20.76,228.535,11.629,99.961,-0.0023402
20.81,229.036,11.629,99.96,-0.0030129
20.86,229.536,11.629,99.958,-0.0033069
20.91,230.036,11.629,99.957,-0.0026390
20.96,230.536,11.629,99.955,-0.0031044
21.01,231.036,11.628,99.953,-0.0030654
21.07,231.536,11.628,99.952,-0.0030268
21.12,232.036,11.628,99.951,-0.0030675
21.17,232.536,11.628,99.949,-0.0033085
21.22,233.036,11.628,99.948,-0.0032609
21.28,233.536,11.628,99.946,-0.0031792
21.33,234.036,11.627,99.944,-0.0033315
21.38,234.537,11.627,99.943,-0.0036978
21.44,235.037,11.627,99.941,-0.0031923
21.49,235.537,11.627,99.939,-0.0029452
21.54,236.037,11.627,99.938,-0.0033668
21.59,236.537,11.626,99.937,-0.0030108
21.64,237.037,11.626,99.935,-0.0030478
21.68,237.537,11.626,99.933,-0.0037692
21.73,238.037,11.626,99.932,-0.0035635
21.78,238.537,11.626,99.93,-0.0026979
21.83,239.037,11.626,99.928,-0.0026721
21.88,239.537,11.625,99.927,-0.0038383
21.93,240.038,11.625,99.925,-0.0038906
21.98,240.538,11.625,99.924,-0.0032727
22.02,241.038,11.625,99.922,-0.0035920
22.07,241.538,11.625,99.92,-0.0029306
22.12,242.038,11.624,99.919,-0.0025314
22.17,242.538,11.624,99.917,-0.0034892
22.22,243.038,11.624,99.915,-0.0033992
22.27,243.538,11.624,99.913,-0.0035285
22.32,244.038,11.624,99.912,-0.0037050
22.37,244.538,11.623,99.91,-0.0039427
22.42,245.038,11.623,99.908,-0.0035876
22.47,245.538,11.623,99.906,-0.0035616
22.52,246.039,11.623,99.905,-0.0034363
22.57,246.539,11.623,99.903,-0.0034356
22.62,247.039,11.622,99.902,-0.0032077
22.67,247.539,11.622,99.9,-0.0035138
22.72,248.039,11.622,99.898,-0.0034580
22.77,248.539,11.622,99.897,-0.0032659
22.82,249.039,11.622,99.895,-0.0033687
22.88,249.539,11.621,99.893,-0.0036584
22.93,250.039,11.621,99.891,-0.0034287
22.98,250.539,11.621,99.889,-0.0030400
23.02,251.039,11.621,99.888,-0.0034075
23.07,251.54,11.621,99.886,-0.0033551
23.12,252.04,11.62,99.884,-0.0036144
23.17,252.54,11.62,99.882,-0.0039498
23.22,253.04,11.62,99.88,-0.0032804
23.27,253.54,11.62,99.879,-0.0036303
23.32,254.04,11.62,99.877,-0.0034754
23.37,254.54,11.619,99.875,-0.0034604
23.42,255.04,11.619,99.873,-0.0035186
23.47,255.54,11.619,99.872,-0.0036446
23.52,256.04,11.619,99.87,-0.0034073
23.57,256.54,11.618,99.868,-0.0033973
23.62,257.041,11.618,99.866,-0.0036751
23.67,257.541,11.618,99.864,-0.0039041
23.72,258.041,11.618,99.862,-0.0038391
23.77,258.541,11.618,99.86,-0.0033456
23.82,259.041,11.617,99.859,-0.0038475
23.87,259.541,11.617,99.857,-0.0035256
23.92,260.041,11.617,99.855,-0.0037879
23.97,260.541,11.617,99.853,-0.0034640
24.02,261.041,11.617,99.851,-0.0035486
24.07,261.541,11.616,99.849,-0.0039113
24.12,262.041,11.616,99.848,-0.0035321
24.17,262.542,11.616,99.846,-0.0039027
24.22,263.042,11.616,99.844,-0.0041247
24.27,263.542,11.615,99.842,-0.0037143
24.32,264.042,11.615,99.84,-0.0039661
24.37,264.542,11.615,99.838,-0.0036329
24.42,265.042,11.615,99.837,-0.0035958
24.47,265.542,11.615,99.835,-0.0037611
24.52,266.042,11.614,99.833,-0.0029384
24.57,266.542,11.614,99.832,-0.0037209
24.62,267.042,11.614,99.83,-0.0040833
24.67,267.542,11.614,99.828,-0.0036519
24.72,268.043,11.614,99.826,-0.0039352
24.77,268.543,11.613,99.824,-0.0038636
24.82,269.043,11.613,99.822,-0.0038300
24.87,269.543,11.613,99.82,-0.0038230
24.92,270.043,11.613,99.818,-0.0038157
24.97,270.543,11.612,99.816,-0.0038532
25.02,271.043,11.612,99.814,-0.0035069
25.07,271.543,11.612,99.812,-0.0041110
25.12,272.043,11.612,99.81,-0.0040835
25.17,272.543,11.612,99.808,-0.0034855
25.22,273.043,11.611,99.806,-0.0034465
25.27,273.543,11.611,99.804,-0.0039140
25.32,274.044,11.611,99.802,-0.0037899
25.37,274.544,11.611,99.8,-0.0039784
25.42,275.044,11.61,99.799,-0.0028033
25.47,275.544,11.61,99.797,-0.0040590
25.52,276.044,11.61,99.795,-0.0040952
25.57,276.544,11.61,99.793,-0.0043352
25.62,277.044,11.609,99.791,-0.0043402
25.67,277.544,11.609,99.789,-0.0039835
25.72,278.044,11.609,99.787,-0.0039668
25.77,278.544,11.609,99.785,-0.0040793
25.82,279.044,11.609,99.783,-0.0042538
25.87,279.545,11.608,99.781,-0.0045162
25.92,280.045,11.608,99.778,-0.0044758
25.97,280.545,11.608,99.777,-0.0030232
26.02,281.045,11.608,99.775,-0.0041434
26.07,281.545,11.607,99.773,-0.0041158
26.12,282.045,11.607,99.771,-0.0043517
26.17,282.545,11.607,99.769,-0.0037947
26.22,283.045,11.607,99.767,-0.0039733
26.27,283.545,11.606,99.765,-0.0041028
26.32,284.045,11.606,99.763,-0.0045150
26.37,284.545,11.606,99.761,-0.0042155
26.42,285.046,11.606,99.759,-0.0039654
26.47,285.546,11.606,99.757,-0.0044908
26.52,286.046,11.605,99.754,-0.0040698
26.57,286.546,11.605,99.752,-0.0037132
26.62,287.046,11.605,99.75,-0.0038254
26.67,287.546,11.605,99.748,-0.0037455
26.71,288.046,11.604,99.747,-0.0038392
26.76,288.546,11.604,99.744,-0.0038496
26.81,289.046,11.604,99.743,-0.0037543
26.86,289.546,11.604,99.741,-0.0042963
26.91,290.046,11.603,99.738,-0.0044304
26.96,290.547,11.603,99.736,-0.0043260
27.01,291.047,11.603,99.734,-0.0044733
27.06,291.547,11.603,99.732,-0.0045183
27.11,292.047,11.602,99.73,-0.0042925
27.16,292.547,11.602,99.728,-0.0040661
27.21,293.047,11.602,99.726,-0.0043940
27.26,293.547,11.602,99.724,-0.0044384
27.31,294.047,11.602,99.722,-0.0043214
27.36,294.547,11.601,99.72,-0.0041758
27.41,295.047,11.601,99.718,-0.0042598
27.46,295.547,11.601,99.716,-0.0044831
27.51,296.048,11.601,99.714,-0.0045037
27.56,296.548,11.6,99.712,-0.0043318
27.61,297.048,11.6,99.71,-0.0043819
27.66,297.548,11.6,99.708,-0.0035517
27.71,298.048,11.6,99.706,-0.0048459
27.76,298.548,11.599,99.703,-0.0045749
27.81,299.048,11.599,99.701,-0.0046699
27.86,299.548,11.599,99.698,-0.0045472
27.91,300.048,11.598,99.696,-0.0042246
27.96,300.548,11.598,99.694,-0.0042184
28.01,301.048,11.598,99.692,-0.0038462
28.06,301.548,11.598,99.69,-0.0043518
28.12,302.049,11.597,99.687,-0.0048174
28.17,302.549,11.597,99.685,-0.0042640
28.22,303.049,11.597,99.683,-0.0048720
28.27,303.549,11.597,99.681,-0.0043502
28.32,304.049,11.596,99.679,-0.0045682
28.37,304.549,11.596,99.676,-0.0044594
28.42,305.049,11.596,99.674,-0.0044847
28.47,305.549,11.596,99.672,-0.0040803
28.52,306.049,11.595,99.67,-0.0045012
28.57,306.549,11.595,99.668,-0.0035800
28.62,307.049,11.595,99.666,-0.0045354
28.67,307.55,11.595,99.663,-0.0047821
28.72,308.05,11.594,99.661,-0.0038854
28.77,308.55,11.594,99.659,-0.0041721
28.82,309.05,11.594,99.657,-0.0038983
28.87,309.55,11.594,99.655,-0.0044310
28.92,310.05,11.593,99.652,-0.0042001
28.97,310.55,11.593,99.65,-0.0049981
29.03,311.05,11.593,99.648,-0.0055077
29.08,311.55,11.593,99.645,-0.0050673
29.13,312.05,11.592,99.643,-0.0046660
29.18,312.55,11.592,99.641,-0.0039926
29.23,313.051,11.592,99.638,-0.0047837
29.28,313.551,11.591,99.636,-0.0042828
29.33,314.051,11.591,99.634,-0.0041139
29.38,314.551,11.591,99.631,-0.0045455
29.43,315.051,11.591,99.629,-0.0049211
29.48,315.551,11.59,99.627,-0.0048507
29.53,316.051,11.59,99.624,-0.0050697
29.59,316.551,11.59,99.622,-0.0047454
29.64,317.051,11.59,99.62,-0.0047258
29.69,317.551,11.589,99.617,-0.0047145
29.74,318.051,11.589,99.615,-0.0048630
29.79,318.552,11.589,99.612,-0.0045519
29.83,319.052,11.588,99.61,-0.0046642
29.88,319.552,11.588,99.608,-0.0047939
29.93,320.052,11.588,99.606,-0.0050073
29.98,320.552,11.588,99.603,-0.0046465
30.03,321.052,11.587,99.601,-0.0056630
30.08,321.552,11.587,99.598,-0.0049724
30.13,322.052,11.587,99.596,-0.0057339
30.18,322.552,11.587,99.593,-0.0051930
30.23,323.052,11.586,99.591,-0.0053838
30.28,323.552,11.586,99.588,-0.0052438
30.33,324.053,11.586,99.586,-0.0054599
30.38,324.553,11.585,99.583,-0.0055483
30.43,325.053,11.585,99.581,-0.0055893
30.49,325.553,11.585,99.578,-0.0052603
30.54,326.053,11.584,99.575,-0.0052583
30.58,326.553,11.584,99.573,-0.0052391
30.63,327.053,11.584,99.57,-0.0050956
30.68,327.553,11.584,99.568,-0.0049437
30.73,328.053,11.583,99.565,-0.0051195
30.78,328.553,11.583,99.563,-0.0045536
30.83,329.053,11.583,99.56,-0.0053979
30.88,329.553,11.582,99.557,-0.0058886
30.93,330.054,11.582,99.554,-0.0053536
30.99,330.554,11.582,99.552,-0.0059073
31.04,331.054,11.581,99.549,-0.0056102
31.09,331.554,11.581,99.546,-0.0056087
31.14,332.054,11.581,99.544,-0.0056641
31.19,332.554,11.58,99.541,-0.0053727
31.23,333.054,11.58,99.538,-0.0049011
31.28,333.554,11.58,99.536,-0.0056732
31.33,334.054,11.58,99.533,-0.0049815
31.37,334.554,11.579,99.53,-0.0051538
31.42,335.054,11.579,99.528,-0.0054411
31.47,335.555,11.579,99.525,-0.0056613
31.52,336.055,11.578,99.522,-0.0053074
31.57,336.555,11.578,99.519,-0.0052937
31.62,337.055,11.578,99.517,-0.0054803
31.67,337.555,11.577,99.514,-0.0051575
31.72,338.055,11.577,99.511,-0.0060841
31.77,338.555,11.577,99.508,-0.0054299
31.82,339.055,11.576,99.506,-0.0057279
31.87,339.555,11.576,99.503,-0.0059492
31.92,340.055,11.576,99.5,-0.0058008
31.97,340.555,11.575,99.497,-0.0061768
32.02,341.056,11.575,99.494,-0.0057878
32.07,341.556,11.575,99.491,-0.0063232
32.13,342.056,11.574,99.488,-0.0060806
32.18,342.556,11.574,99.485,-0.0063384
32.23,343.056,11.574,99.482,-0.0064338
32.28,343.556,11.573,99.479,-0.0063536
32.33,344.056,11.573,99.476,-0.0063677
32.38,344.556,11.573,99.473,-0.0062525
32.43,345.056,11.572,99.47,-0.0064440
32.48,345.556,11.572,99.467,-0.0059991
32.53,346.056,11.571,99.464,-0.0054396
32.58,346.557,11.571,99.461,-0.0061854
32.63,347.057,11.571,99.458,-0.0064240
32.68,347.557,11.57,99.455,-0.0062386
32.73,348.057,11.57,99.451,-0.0066142
32.78,348.557,11.57,99.448,-0.0067379
32.83,349.057,11.569,99.445,-0.0067892
32.88,349.557,11.569,99.442,-0.0065594
32.93,350.057,11.569,99.438,-0.0069698
32.98,350.557,11.568,99.435,-0.0068666
33.03,351.057,11.568,99.432,-0.0064705
33.08,351.557,11.567,99.429,-0.0073034
33.13,352.058,11.567,99.426,-0.0064006
33.18,352.558,11.567,99.422,-0.0068410
33.23,353.058,11.566,99.419,-0.0067742
33.28,353.558,11.566,99.415,-0.0070422
33.33,354.058,11.565,99.412,-0.0065945
33.38,354.558,11.565,99.409,-0.0063928
33.43,355.058,11.565,99.405,-0.0071751
33.48,355.558,11.564,99.402,-0.0070009
33.53,356.058,11.564,99.399,-0.0071910
33.58,356.558,11.563,99.395,-0.0069076
33.63,357.058,11.563,99.392,-0.0071429
33.68,357.558,11.563,99.389,-0.0063501
33.73,358.059,11.562,99.385,-0.0068917
33.78,358.559,11.562,99.381,-0.0078759
33.83,359.059,11.561,99.378,-0.0078627
33.88,359.559,11.561,99.374,-0.0076994
33.93,360.059,11.561,99.37,-0.0076251
33.98,360.559,11.56,99.366,-0.0076427
34.03,361.059,11.56,99.363,-0.0073167
34.08,361.559,11.559,99.359,-0.0076438
34.13,362.059,11.559,99.355,-0.0076888
34.18,362.559,11.558,99.351,-0.0074490
34.23,363.059,11.558,99.347,-0.0077839
34.28,363.56,11.557,99.343,-0.0077840
34.33,364.06,11.557,99.339,-0.0076045
34.38,364.56,11.556,99.335,-0.0078588
34.43,365.06,11.556,99.331,-0.0078461
34.48,365.56,11.556,99.327,-0.0083781
34.53,366.06,11.555,99.323,-0.0081762
34.58,366.56,11.555,99.319,-0.0081753
34.63,367.06,11.554,99.315,-0.0079358
34.68,367.56,11.554,99.311,-0.0080982
34.73,368.06,11.553,99.307,-0.0082117
34.78,368.56,11.553,99.303,-0.0074771
34.83,369.061,11.552,99.298,-0.0082498
34.88,369.561,11.552,99.294,-0.0085681
34.92,370.061,11.551,99.29,-0.0086006
34.97,370.561,11.551,99.285,-0.0089156
35.02,371.061,11.55,99.281,-0.0093321
35.07,371.561,11.55,99.276,-0.0090711
35.12,372.061,11.549,99.272,-0.0090158
35.17,372.561,11.549,99.267,-0.0089891
35.22,373.061,11.548,99.263,-0.0095269
35.27,373.561,11.548,99.258,-0.0091678
35.32,374.061,11.547,99.253,-0.0095544
35.38,374.562,11.546,99.249,-0.0091582
35.43,375.062,11.546,99.244,-0.0095603
35.48,375.562,11.545,99.239,-0.0095172
35.53,376.062,11.545,99.234,-0.0095957
35.58,376.562,11.544,99.23,-0.0100280
35.63,377.062,11.544,99.225,-0.0103744
35.68,377.562,11.543,99.219,-0.0101604
35.73,378.062,11.542,99.214,-0.0101449
35.78,378.562,11.542,99.209,-0.0108952
35.83,379.062,11.541,99.203,-0.0107430
35.88,379.562,11.541,99.198,-0.0109986
35.93,380.063,11.54,99.192,-0.0113700
35.98,380.563,11.539,99.187,-0.0110502
36.03,381.063,11.539,99.181,-0.0106954
36.08,381.563,11.538,99.175,-0.0121818
36.13,382.063,11.537,99.169,-0.0125226
36.18,382.563,11.536,99.163,-0.0127777
36.22,383.063,11.536,99.157,-0.0128344
36.27,383.563,11.535,99.15,-0.0134438
36.33,384.063,11.534,99.143,-0.0140130
36.38,384.563,11.533,99.136,-0.0141536
36.43,385.063,11.533,99.129,-0.0147887
36.48,385.563,11.532,99.122,-0.0141795
36.53,386.064,11.531,99.115,-0.0141767
36.58,386.564,11.53,99.108,-0.0147485
36.63,387.064,11.529,99.101,-0.0153636
36.68,387.564,11.528,99.093,-0.0150459
36.73,388.064,11.527,99.086,-0.0154735
36.78,388.564,11.527,99.078,-0.0163790
36.83,389.064,11.526,99.07,-0.0161647
36.88,389.564,11.525,99.062,-0.0151843
36.93,390.064,11.524,99.054,-0.0156859
36.98,390.564,11.523,99.046,-0.0157957
37.02,391.064,11.522,99.038,-0.0165018
37.07,391.565,11.521,99.03,-0.0162149
37.12,392.065,11.52,99.022,-0.0173479
37.17,392.565,11.519,99.013,-0.0175599
37.22,393.065,11.518,99.004,-0.0170944
37.27,393.565,11.517,98.996,-0.0172303
37.32,394.065,11.516,98.987,-0.0178409
37.37,394.565,11.515,98.979,-0.0177161
37.42,395.065,11.514,98.97,-0.0181400
37.47,395.565,11.513,98.96,-0.0181313
37.52,396.065,11.512,98.951,-0.0184720
37.57,396.565,11.511,98.942,-0.0186872
37.63,397.066,11.51,98.933,-0.0192743
37.68,397.566,11.509,98.923,-0.0192963
37.73,398.066,11.507,98.914,-0.0190391
37.78,398.566,11.506,98.905,-0.0186019
37.83,399.066,11.505,98.895,-0.0184883
37.88,399.566,11.504,98.886,-0.0182566
37.93,400.066,11.503,98.876,-0.0187333
37.98,400.566,11.502,98.867,-0.0194365
38.03,401.066,11.501,98.857,-0.0196843
38.08,401.566,11.5,98.847,-0.0204533
38.13,402.066,11.499,98.837,-0.0203789
38.18,402.567,11.497,98.827,-0.0207125
38.23,403.067,11.496,98.817,-0.0213483
38.28,403.567,11.495,98.806,-0.0213471
38.33,404.067,11.494,98.795,-0.0215024
38.38,404.567,11.492,98.785,-0.0212180
38.43,405.067,11.491,98.774,-0.0214233
38.48,405.567,11.49,98.763,-0.0208867
38.53,406.067,11.489,98.753,-0.0216130
38.58,406.567,11.487,98.741,-0.0227147
38.63,407.067,11.486,98.73,-0.0227268
38.68,407.567,11.485,98.718,-0.0228108
38.73,408.068,11.483,98.707,-0.0228822
38.78,408.568,11.482,98.696,-0.0224472
38.83,409.068,11.481,98.684,-0.0229511
38.88,409.568,11.479,98.673,-0.0238158
38.93,410.068,11.478,98.661,-0.0240675
38.98,410.568,11.477,98.649,-0.0245132
39.03,411.068,11.475,98.637,-0.0251004
39.08,411.568,11.474,98.624,-0.0253205
39.13,412.068,11.472,98.611,-0.0254698
39.18,412.568,11.471,98.598,-0.0268911
39.23,413.068,11.469,98.585,-0.0269164
39.28,413.568,11.468,98.571,-0.0281274
39.33,414.069,11.466,98.557,-0.0283236
39.38,414.569,11.464,98.543,-0.0257615
39.43,415.069,11.463,98.53,-0.0259746
39.48,415.569,11.461,98.517,-0.0263271
39.52,416.069,11.46,98.504,-0.0263181
39.57,416.569,11.458,98.491,-0.0273403
39.62,417.069,11.457,98.477,-0.0290957
39.67,417.569,11.455,98.462,-0.0296480
39.72,418.069,11.453,98.447,-0.0296833
39.77,418.569,11.452,98.433,-0.0303293
39.82,419.069,11.45,98.418,-0.0303380
39.87,419.57,11.448,98.402,-0.0307985
39.92,420.07,11.446,98.386,-0.0322354
39.97,420.57,11.444,98.37,-0.0318223
40.02,421.07,11.442,98.354,-0.0318677
40.07,421.57,11.441,98.338,-0.0320261
40.12,422.07,11.439,98.322,-0.0327578
40.18,422.57,11.437,98.305,-0.0326210
40.23,423.07,11.435,98.289,-0.0326777
40.27,423.57,11.433,98.273,-0.0327166
40.32,424.07,11.431,98.256,-0.0329616
40.37,424.57,11.429,98.239,-0.0330455
40.42,425.071,11.427,98.222,-0.0335780
40.47,425.571,11.425,98.206,-0.0342566
40.52,426.071,11.423,98.189,-0.0346132
40.57,426.571,11.421,98.171,-0.0345803
40.62,427.071,11.419,98.154,-0.0356028
40.67,427.571,11.417,98.136,-0.0360897
40.72,428.071,11.415,98.117,-0.0361368
40.77,428.571,11.413,98.099,-0.0368762
40.82,429.071,11.411,98.08,-0.0372232
40.87,429.571,11.408,98.062,-0.0375667
40.92,430.071,11.406,98.043,-0.0376143
40.97,430.572,11.404,98.024,-0.0385000
41.02,431.072,11.402,98.004,-0.0386986
41.07,431.572,11.399,97.984,-0.0397447
41.12,432.072,11.397,97.964,-0.0400146
41.17,432.572,11.395,97.944,-0.0407811
41.22,433.072,11.392,97.924,-0.0411375
41.27,433.572,11.39,97.903,-0.0418259
41.32,434.072,11.387,97.881,-0.0421792
41.37,434.572,11.385,97.86,-0.0445801
41.42,435.072,11.382,97.837,-0.0453662
41.47,435.572,11.38,97.814,-0.0466046
41.52,436.073,11.377,97.791,-0.0470209
41.58,436.573,11.374,97.767,-0.0490362
41.63,437.073,11.371,97.742,-0.0501864
41.68,437.573,11.368,97.717,-0.0502776
41.73,438.073,11.365,97.692,-0.0516279
41.78,438.573,11.362,97.666,-0.0521370
41.83,439.073,11.359,97.639,-0.0530441
41.88,439.573,11.356,97.613,-0.0543438
41.93,440.073,11.353,97.585,-0.0551835
41.98,440.573,11.35,97.557,-0.0556762
42.03,441.073,11.346,97.53,-0.0569614
42.08,441.573,11.343,97.501,-0.0575107
42.13,442.074,11.34,97.472,-0.0588523
42.17,442.574,11.336,97.443,-0.0606304
42.22,443.074,11.333,97.412,-0.0625566
42.27,443.574,11.329,97.38,-0.0640533
42.32,444.074,11.325,97.348,-0.0656222
42.37,444.574,11.322,97.316,-0.0670343
42.42,445.074,11.318,97.282,-0.0687191
42.47,445.574,11.313,97.246,-0.0717712
42.52,446.074,11.309,97.21,-0.0731853
42.57,446.574,11.305,97.173,-0.0740588
42.62,447.074,11.301,97.136,-0.0758732
42.67,447.575,11.296,97.098,-0.0787691
42.73,448.075,11.292,97.058,-0.0815503
42.78,448.575,11.287,97.016,-0.0829571
42.83,449.075,11.282,96.975,-0.0842179
42.88,449.575,11.277,96.933,-0.0837691
42.93,450.075,11.272,96.892,-0.0835231
42.97,450.575,11.267,96.849,-0.0857843
43.02,451.075,11.262,96.805,-0.0889056
43.07,451.575,11.257,96.76,-0.0947808
43.12,452.075,11.251,96.711,-0.0981409
43.17,452.575,11.245,96.66,-0.1049510
43.22,453.076,11.239,96.606,-0.1068010
43.27,453.576,11.232,96.55,-0.1136190
43.32,454.076,11.225,96.489,-0.1275320
43.37,454.576,11.218,96.425,-0.1220130
43.42,455.076,11.21,96.359,-0.1274320
43.47,455.576,11.203,96.294,-0.1293210
43.52,456.076,11.195,96.225,-0.1376500
43.57,456.576,11.186,96.154,-0.1425280
43.62,457.076,11.178,96.078,-0.1485140
43.67,457.576,11.169,96.003,-0.1492200
43.72,458.076,11.16,95.926,-0.1569370
43.77,458.577,11.15,95.843,-0.1648520
43.82,459.077,11.141,95.76,-0.1673530
43.87,459.577,11.131,95.677,-0.1701190
43.92,460.077,11.121,95.59,-0.1730490
43.97,460.577,11.111,95.504,-0.1784150
44.02,461.077,11.1,95.412,-0.1792430
44.07,461.577,11.089,95.32,-0.1814040
44.12,462.077,11.078,95.225,-0.1917420
44.17,462.577,11.067,95.127,-0.1945050
44.22,463.077,11.056,95.03,-0.2004900
44.27,463.577,11.044,94.929,-0.2002190
44.32,464.078,11.032,94.823,-0.2080900
44.37,464.578,11.019,94.712,-0.2255880
44.42,465.078,11.006,94.601,-0.2289480
44.47,465.578,10.992,94.486,-0.2343100
44.52,466.078,10.978,94.364,-0.2405470
44.57,466.578,10.964,94.243,-0.2424350
44.62,467.078,10.95,94.118,-0.2554290
44.67,467.578,10.935,93.99,-0.2684180
44.72,468.078,10.919,93.855,-0.2876960
44.77,468.578,10.903,93.715,-0.2770590
44.82,469.078,10.886,93.568,-0.3157830
44.87,469.578,10.869,93.424,-0.2935760
44.92,470.079,10.852,93.284,-0.2781620
44.97,470.579,10.836,93.144,-0.2875230
45.02,471.079,10.819,92.999,-0.3058220
45.07,471.579,10.801,92.845,-0.3276540
45.12,472.079,10.781,92.673,-0.3420810
45.17,472.579,10.761,92.495,-0.3722890
45.22,473.079,10.739,92.31,-0.3893840
45.27,473.579,10.716,92.114,-0.4155650
45.32,474.079,10.692,91.906,-0.4371560
45.37,474.579,10.667,91.693,-0.4383490
45.42,475.079,10.642,91.477,-0.4469940
45.47,475.58,10.617,91.258,-0.4529620
45.52,476.08,10.59,91.029,-0.4736040
45.57,476.58,10.561,90.782,-0.5099590
45.62,477.08,10.531,90.524,-0.5069920
45.68,477.58,10.5,90.255,-0.5282090
45.73,478.08,10.469,89.984,-0.5215870
45.78,478.58,10.438,89.717,-0.5290640
45.83,479.08,10.406,89.444,-0.5380570
45.88,479.58,10.374,89.174,-0.4926500
45.93,480.08,10.343,88.905,-0.5659540
45.98,480.58,10.305,88.582,-0.7057660
46.03,481.081,10.266,88.242,-0.6680640
46.08,481.581,10.225,87.894,-0.6951870
46.13,482.081,10.184,87.541,-0.6987810
46.18,482.581,10.144,87.194,-0.7029410
46.23,483.081,10.103,86.84,-0.7230280
46.28,483.581,10.062,86.49,-0.7402210
46.33,484.081,10.017,86.1,-0.7668390
46.38,484.581,9.971,85.704,-0.8263180
46.43,485.081,9.922,85.284,-0.9123820
46.48,485.581,9.868,84.82,-0.9750170
46.53,486.081,9.812,84.338,-0.9705140
46.58,486.582,9.757,83.867,-0.9889120
46.63,487.082,9.703,83.399,-0.9780610
46.68,487.582,9.644,82.899,-1.0366
46.73,488.082,9.584,82.377,-1.10897
46.78,488.582,9.521,81.836,-1.07479
46.83,489.082,9.458,81.294,-1.12584
46.88,489.582,9.39,80.717,-1.15175
46.93,490.082,9.317,80.081,-1.24554
46.98,490.582,9.246,79.474,-1.22853
47.03,491.082,9.173,78.849,-1.24944
47.08,491.582,9.097,78.197,-1.29753
47.13,492.083,9.015,77.486,-1.40387
47.18,492.583,8.931,76.765,-1.50629
47.23,493.083,8.844,76.02,-1.49413
47.28,493.583,8.758,75.277,-1.50805
47.33,494.083,8.665,74.48,-1.60575
47.38,494.583,8.569,73.657,-1.62645
47.43,495.083,8.476,72.857,-1.76572
47.48,495.583,8.372,71.96,-1.76476
47.53,496.083,8.268,71.067,-1.87944
47.58,496.583,8.159,70.134,-1.87777
47.63,497.083,8.048,69.178,-1.95026
47.68,497.583,7.935,68.209,-2.07937
47.73,498.084,7.817,67.195,-1.96926
47.78,498.584,7.695,66.147,-2.16656
47.83,499.084,7.564,65.017,-2.2205
47.88,499.584,7.434,63.896,-2.27962
47.93,500.084,7.299,62.739,-2.30424
47.98,500.584,7.161,61.553,-2.32683
48.03,501.084,7.022,60.362,-2.53833
48.08,501.584,6.873,59.078,-2.55617
48.13,502.084,6.722,57.781,-2.55011
48.18,502.584,6.569,56.468,-2.63986
48.23,503.084,6.414,55.128,-2.58143
48.28,503.585,6.259,53.803,-2.76882
48.33,504.085,6.093,52.372,-2.85666
48.38,504.585,5.926,50.934,-2.89882
48.43,505.085,5.764,49.541,-2.91052
48.48,505.585,5.59,48.05,-3.07049
48.53,506.085,5.411,46.507,-3.14457
48.58,506.585,5.223,44.894,-3.25513
48.63,507.085,5.034,43.267,-3.37616
48.69,507.585,4.814,41.381,-4.83471
48.76,508.085,4.549,39.1,-3.68152
48.81,508.585,4.36,37.476,-2.91608
48.85,509.086,4.196,36.068,-2.80414
48.89,509.586,4.028,34.625,-2.9652
48.94,510.086,3.847,33.067,-3.22166
48.98,510.586,3.651,31.384,-3.48335
49.03,511.086,3.465,29.786,-3.02642
49.07,511.586,3.284,28.229,-3.32199
49.12,512.086,3.088,26.542,-3.28078
49.17,512.586,2.895,24.887,-3.26282
49.22,513.086,2.711,23.303,-3.16358
49.27,513.586,2.52,21.661,-3.09501
49.32,514.086,2.342,20.133,-2.99571
49.37,514.587,2.168,18.632,-2.94544
49.42,515.087,1.993,17.128,-3.06744
49.46,515.587,1.836,15.785,-2.66866
49.51,516.087,1.681,14.446,-2.73442
49.56,516.587,1.525,13.112,-2.6085
49.61,517.087,1.375,11.816,-2.56278
49.66,517.587,1.225,10.532,-2.45164
49.71,518.087,1.089,9.361,-2.31094
49.77,518.587,0.9580000,8.234,-2.13055
49.82,519.087,0.8430000,7.249,-1.81907
49.87,519.587,0.7400000,6.363,-1.6425
49.92,520.088,0.6470000,5.565,-1.49964
49.97,520.588,0.5630000,4.836,-1.36154
50.02,521.088,0.4870000,4.186,-1.21462
50.07,521.588,0.4210000,3.615,-1.06316
50.12,522.088,0.3640000,3.126,-0.9226170
50.17,522.588,0.3170000,2.726,-0.7645470
50.22,523.088,0.2770000,2.379,-0.6123100
50.27,523.588,0.2430000,2.093,-0.5170250
50.32,524.088,0.2160000,1.855,-0.4059470
50.37,524.588,0.1950000,1.672,-0.3223950
50.42,525.088,0.1780000,1.533,-0.2424390
50.47,525.588,0.1660000,1.427,-0.1764190
50.52,526.089,0.1570000,1.353,-0.1210910
50.57,526.589,0.1520000,1.304,-0.0789715
50.62,527.089,0.1480000,1.272,-0.0517970
50.67,527.589,0.1450000,1.245,-0.0545795
50.72,528.089,0.1420000,1.218,-0.0517311
50.77,528.589,0.1390000,1.193,-0.0464725
50.82,529.089,0.1360000,1.172,-0.0396368
50.87,529.589,0.1340000,1.154,-0.0328570
50.92,530.089,0.1320000,1.139,-0.0269038
50.98,530.589,0.1310000,1.126,-0.0222523
51.03,531.089,0.1300000,1.116,-0.0173848
51.08,531.59,0.1290000,1.109,-0.0142146
51.13,532.09,0.1280000,1.102,-0.0114206
51.18,532.59,0.1280000,1.098,-0.0087145
51.23,533.09,0.1270000,1.094,-0.0068696
51.28,533.59,0.1270000,1.091,-0.0055111
51.33,534.09,0.1270000,1.088,-0.0041252
51.38,534.59,0.1260000,1.086,-0.0038857
51.43,535.09,0.1260000,1.085,-0.0029370
51.48,535.59,0.1260000,1.083,-0.0024152
51.53,536.09,0.1260000,1.082,-0.0020979
51.58,536.59,0.1260000,1.081,-0.0019545
51.63,537.091,0.1260000,1.08,-0.0013626
51.68,537.591,0.1260000,1.08,-0.0009572
51.73,538.091,0.1260000,1.079,-0.0006161
51.78,538.591,0.1260000,1.079,-0.0009827
51.83,539.091,0.1250000,1.079,-0.0002686
51.88,539.591,0.1250000,1.078,-0.0001058
51.93,540.091,0.1250000,1.078,-0.0004011
51.98,540.591,0.1250000,1.078,0.0000205
52.03,541.091,0.1250000,1.078,-0.0005237
52.08,541.591,0.1250000,1.077,-0.0005063
52.13,542.091,0.1250000,1.077,-0.0005234
52.18,542.592,0.1250000,1.077,0.0002024
52.23,543.092,0.1250000,1.077,0.0001111
52.28,543.592,0.1250000,1.077,-0.0002055
52.33,544.092,0.1250000,1.077,-0.0006641
52.38,544.592,0.1250000,1.077,-0.0000559
52.44,545.092,0.1250000,1.077,0.0001983
52.49,545.592,0.1250000,1.077,-0.0001833
52.54,546.092,0.1250000,1.077,0.0002468
52.59,546.592,0.1250000,1.077,0.0000522
52.64,547.092,0.1250000,1.076,-0.0002820
52.69,547.592,0.1250000,1.076,-0.0001209
52.73,548.093,0.1250000,1.076,-0.0000772
52.78,548.593,0.1250000,1.076,0.0001001
52.83,549.093,0.1250000,1.076,-0.0006798
52.89,549.593,0.1250000,1.076,-0.0004181
52.94,550.093,0.1250000,1.076,-0.0004690
52.99,550.593,0.1250000,1.076,0.0000001
53.04,551.093,0.1250000,1.076,-0.0000013
53.08,551.593,0.1250000,1.076,0.0001181
53.13,552.093,0.1250000,1.076,-0.0002976
53.18,552.593,0.1250000,1.076,-0.0005134
53.23,553.093,0.1250000,1.075,-0.0008852
53.28,553.593,0.1250000,1.075,-0.0007785
53.33,554.094,0.1250000,1.075,-0.0001821
53.38,554.594,0.1250000,1.075,0.0002206
53.43,555.094,0.1250000,1.075,-0.0000036
53.48,555.594,0.1250000,1.075,-0.0000891
53.53,556.094,0.1250000,1.075,-0.0005642
53.58,556.594,0.1250000,1.075,0.0003302
53.63,557.094,0.1250000,1.075,0.0002205
53.68,557.594,0.1250000,1.075,-0.0000907
53.73,558.094,0.1250000,1.075,-0.0002587
53.78,558.594,0.1250000,1.075,0.0001139
53.83,559.094,0.1250000,1.074,-0.0001009
53.88,559.595,0.1250000,1.074,-0.0001857
53.93,560.095,0.1250000,1.074,-0.0002377
53.98,560.595,0.1250000,1.074,-0.0002339
54.03,561.095,0.1250000,1.074,-0.0004344
54.08,561.595,0.1250000,1.074,-0.0002178
54.13,562.095,0.1250000,1.074,0.0000566
54.18,562.595,0.1250000,1.074,-0.0003833
54.23,563.095,0.1250000,1.073,-0.0006127
54.28,563.595,0.1250000,1.073,-0.0005192
54.33,564.095,0.1250000,1.073,-0.0005645
54.38,564.595,0.1250000,1.073,-0.0002283
54.43,565.096,0.1250000,1.073,-0.0006941
54.48,565.596,0.1250000,1.073,-0.0008555
54.52,566.096,0.1250000,1.072,-0.0004165
54.57,566.596,0.1250000,1.072,-0.0001838
54.62,567.096,0.1250000,1.072,-0.0004475
54.67,567.596,0.1250000,1.072,-0.0004119
54.72,568.096,0.1250000,1.071,-0.0005649
54.77,568.596,0.1250000,1.071,0.0005148
54.82,569.096,0.1250000,1.071,-0.0007102
54.87,569.596,0.1250000,1.071,-0.0004105
54.92,570.096,0.1250000,1.07,-0.0002530
54.97,570.597,0.1240000,1.07,-0.0004172
55.02,571.097,0.1240000,1.07,-0.0007720
55.07,571.597,0.1240000,1.069,-0.0007010
55.12,572.097,0.1240000,1.069,-0.0004813
55.17,572.597,0.1240000,1.069,-0.0009264
55.22,573.097,0.1240000,1.068,-0.0002623
55.27,573.597,0.1240000,1.068,0.0002516
55.32,574.097,0.1240000,1.068,-0.0008475
55.37,574.597,0.1240000,1.068,-0.0003280
55.42,575.097,0.1240000,1.067,-0.0005100
55.47,575.597,0.1240000,1.067,-0.0008794
55.52,576.098,0.1240000,1.067,-0.0006908
55.57,576.598,0.1240000,1.066,-0.0010792
55.61,577.098,0.1240000,1.066,-0.0006745
55.66,577.598,0.1240000,1.065,-0.0010923
55.71,578.098,0.1240000,1.065,-0.0005121
55.76,578.598,0.1240000,1.065,-0.0005617
55.82,579.098,0.1240000,1.064,-0.0002279
55.87,579.598,0.1240000,1.064,-0.0004719
55.92,580.098,0.1240000,1.064,-0.0006444
55.97,580.598,0.1240000,1.063,-0.0003080
56.02,581.098,0.1240000,1.063,-0.0006847
56.07,581.598,0.1240000,1.063,-0.0007355
56.12,582.099,0.1240000,1.062,0.0002159
56.17,582.599,0.1240000,1.062,-0.0004174
56.22,583.099,0.1240000,1.062,-0.0003277
56.27,583.599,0.1230000,1.062,-0.0006240
56.32,584.099,0.1230000,1.061,-0.0005707
56.37,584.599,0.1230000,1.061,-0.0010180
56.42,585.099,0.1230000,1.061,-0.0010247
56.47,585.599,0.1230000,1.06,-0.0008467
56.52,586.099,0.1230000,1.06,-0.0011246
56.57,586.599,0.1230000,1.059,-0.0004088
56.62,587.099,0.1230000,1.059,-0.0009912
56.67,587.6,0.1230000,1.059,0.0003018
56.72,588.1,0.1230000,1.059,-0.0004606
56.77,588.6,0.1230000,1.059,-0.0008162
56.82,589.1,0.1230000,1.058,-0.0007615
56.87,589.6,0.1230000,1.057,-0.0011534
56.91,590,0.1230000,1.057,-0.0010433