File: R/rHDPE_App/app/www/Output/TGA/Condensed_Data/Resin2_0__1.csv
0.9200000,30,13.975,100.03,0.0061806
0.9800000,30.5001,13.976,100.031,0.0057072
1.04,31.0002,13.976,100.032,0.0029386
1.1,31.5003,13.976,100.033,0.0008042
1.16,32.0004,13.976,100.034,-0.0017995
1.21,32.5004,13.976,100.034,0.0028261
1.27,33.0005,13.976,100.035,0.0017109
1.33,33.5006,13.976,100.036,-0.0011304
1.38,34.0007,13.976,100.036,0.0039240
1.44,34.5008,13.976,100.037,-0.0006579
1.49,35.0009,13.976,100.038,0.0031173
1.55,35.501,13.977,100.038,-0.0009002
1.6,36.0011,13.977,100.039,0.0036309
1.66,36.5012,13.977,100.04,0.0000495
1.71,37.0013,13.977,100.04,0.0018263
1.77,37.5013,13.977,100.041,0.0015244
1.82,38.0014,13.977,100.041,-0.0002452
1.87,38.5015,13.977,100.042,0.0022496
1.93,39.0016,13.977,100.042,0.0007799
1.98,39.5017,13.977,100.043,0.0005841
2.03,40.0018,13.977,100.044,0.0025262
2.08,40.5019,13.977,100.044,0.0005335
2.14,41.002,13.977,100.045,0.0003389
2.19,41.5021,13.977,100.045,0.0020316
2.24,42.0021,13.978,100.046,0.0006762
2.29,42.5022,13.978,100.046,0.0001929
2.35,43.0023,13.978,100.047,0.0017819
2.4,43.5024,13.978,100.047,0.0012981
2.45,44.0025,13.978,100.048,0.0006241
2.51,44.5026,13.978,100.049,0.0015819
2.56,45.0027,13.978,100.049,0.0013875
2.61,45.5028,13.978,100.05,0.0010506
2.66,46.0029,13.978,100.05,0.0006676
2.71,46.5029,13.978,100.051,0.0015709
2.77,47.003,13.978,100.052,0.0011883
2.82,47.5031,13.978,100.052,0.0004272
2.87,48.0032,13.979,100.053,0.0006638
2.92,48.5033,13.979,100.053,0.0012311
2.97,49.0034,13.979,100.054,0.0011820
3.03,49.5035,13.979,100.054,0.0012746
3.08,50.0036,13.979,100.055,0.0005187
3.13,50.5037,13.979,100.055,0.0010833
3.18,51.0038,13.979,100.056,0.0013168
3.23,51.5038,13.979,100.057,0.0012685
3.28,52.0039,13.979,100.057,0.0012205
3.33,52.504,13.979,100.058,0.0010313
3.39,53.0041,13.979,100.058,0.0014062
3.44,53.5042,13.979,100.059,0.0013110
3.49,54.0043,13.98,100.06,0.0015433
3.54,54.5044,13.98,100.06,0.0010286
3.59,55.0045,13.98,100.061,0.0007007
3.64,55.5046,13.98,100.061,0.0006998
3.69,56.0046,13.98,100.062,0.0011654
3.74,56.5047,13.98,100.062,0.0012110
3.79,57.0048,13.98,100.063,0.0011630
3.84,57.5049,13.98,100.063,0.0013017
3.89,58.005,13.98,100.064,0.0008362
3.94,58.5051,13.98,100.064,0.0010209
3.99,59.0052,13.98,100.065,0.0010668
4.05,59.5053,13.98,100.065,0.0010667
4.1,60.0054,13.98,100.066,0.0013900
4.15,60.5054,13.98,100.066,0.0010650
4.2,61.0055,13.981,100.067,0.0010180
4.25,61.5056,13.981,100.067,0.0007860
4.3,62.0057,13.981,100.068,0.0007851
4.35,62.5058,13.981,100.068,0.0006467
4.4,63.0059,13.981,100.069,0.0007851
4.45,63.506,13.981,100.069,0.0011542
4.5,64.0061,13.981,100.069,0.0009225
4.55,64.5062,13.981,100.07,0.0010145
4.6,65.0063,13.981,100.07,0.0007834
4.65,65.5063,13.981,100.071,0.0005068
4.7,66.0064,13.981,100.071,0.0005525
4.75,66.5065,13.981,100.071,0.0009208
4.8,67.0066,13.981,100.072,0.0006902
4.85,67.5067,13.981,100.072,0.0009204
4.9,68.0068,13.981,100.073,0.0008280
4.95,68.5069,13.981,100.073,0.0010573
5,69.007,13.981,100.074,0.0007812
5.05,69.5071,13.982,100.074,0.0008726
5.1,70.0071,13.982,100.074,0.0005968
5.15,70.5072,13.982,100.075,0.0004591
5.2,71.0073,13.982,100.075,0.0006886
5.25,71.5074,13.982,100.075,0.0006422
5.3,72.0075,13.982,100.076,0.0005964
5.35,72.5076,13.982,100.076,0.0008261
5.4,73.0077,13.982,100.076,0.0009180
5.45,73.5078,13.982,100.077,0.0008264
5.5,74.0079,13.982,100.077,0.0007800
5.55,74.5079,13.982,100.077,0.0006420
5.6,75.008,13.982,100.078,0.0007792
5.65,75.5081,13.982,100.078,0.0008245
5.7,76.0082,13.982,100.078,0.0005039
5.75,76.5083,13.982,100.079,0.0005954
5.8,77.0084,13.982,100.079,0.0006869
5.85,77.5085,13.982,100.079,0.0004577
5.9,78.0086,13.982,100.08,0.0005036
5.95,78.5087,13.982,100.08,0.0003207
6,79.0088,13.982,100.08,0.0005502
6.05,79.5088,13.982,100.081,0.0004581
6.1,80.0089,13.982,100.081,0.0005948
6.15,80.509,13.983,100.081,0.0005033
6.2,81.0091,13.983,100.081,0.0009607
6.25,81.5092,13.983,100.082,0.0004578
6.3,82.0093,13.983,100.082,0.0005490
6.35,82.5094,13.983,100.082,0.0005949
6.4,83.0095,13.983,100.083,0.0004119
6.45,83.5096,13.983,100.083,0.0005494
6.5,84.0096,13.983,100.083,0.0005032
6.55,84.5097,13.983,100.083,0.0009150
6.6,85.0098,13.983,100.084,0.0006866
6.65,85.5099,13.983,100.084,0.0005950
6.71,86.01,13.983,100.084,0.0004577
6.76,86.5101,13.983,100.084,0.0005490
6.81,87.0102,13.983,100.084,0.0004119
6.86,87.5103,13.983,100.085,0.0004118
6.91,88.0104,13.983,100.085,0.0005949
6.96,88.5104,13.983,100.085,0.0000915
7.01,89.0105,13.983,100.085,0.0002745
7.06,89.5106,13.983,100.085,0.0003663
7.11,90.0107,13.983,100.086,0.0004122
7.16,90.5108,13.983,100.086,0.0002747
7.21,91.0109,13.983,100.086,0.0003204
7.26,91.511,13.983,100.086,0.0007324
7.31,92.0111,13.983,100.086,0.0001830
7.36,92.5112,13.983,100.086,0.0002287
7.41,93.0113,13.983,100.086,0.0002744
7.46,93.5113,13.983,100.087,0.0003660
7.51,94.0114,13.983,100.087,0.0000457
7.56,94.5115,13.983,100.087,0.0002745
7.61,95.0116,13.983,100.087,0.0004577
7.66,95.5117,13.983,100.087,0.0002289
7.71,96.0118,13.983,100.087,0.0001374
7.76,96.5119,13.983,100.087,0.0002289
7.81,97.012,13.983,100.087,0.0004573
7.86,97.5121,13.983,100.087,0.0002741
7.91,98.0121,13.983,100.087,-0.0001370
7.96,98.5122,13.983,100.087,0.0001828
8.01,99.0123,13.983,100.088,0.0000914
8.05,99.5124,13.983,100.088,-0.0000000
8.1,100.013,13.983,100.088,0.0001373
8.15,100.513,13.983,100.088,0.0001373
8.2,101.013,13.983,100.088,0.0001373
8.25,101.513,13.983,100.088,-0.0003663
8.3,102.013,13.983,100.088,0.0000000
8.35,102.513,13.983,100.088,-0.0000458
8.4,103.013,13.983,100.088,-0.0000458
8.45,103.513,13.983,100.088,0.0003665
8.51,104.013,13.983,100.088,-0.0002290
8.56,104.513,13.983,100.088,0.0001375
8.61,105.013,13.983,100.088,0.0001374
8.66,105.513,13.983,100.088,-0.0000458
8.71,106.014,13.983,100.088,0.0000916
8.76,106.514,13.983,100.088,-0.0000916
8.81,107.014,13.983,100.088,0.0000458
8.86,107.514,13.983,100.088,0.0000000
8.91,108.014,13.983,100.088,-0.0001373
8.96,108.514,13.983,100.088,-0.0003201
9.01,109.014,13.983,100.088,-0.0000000
9.05,109.514,13.983,100.088,-0.0001829
9.1,110.014,13.983,100.088,-0.0001830
9.15,110.514,13.983,100.088,0.0001373
9.2,111.014,13.983,100.087,-0.0000916
9.25,111.515,13.983,100.087,0.0002290
9.3,112.015,13.983,100.087,0.0000458
9.36,112.515,13.983,100.087,-0.0001375
9.41,113.015,13.983,100.087,0.0000000
9.46,113.515,13.983,100.087,-0.0002288
9.51,114.015,13.983,100.087,-0.0003661
9.56,114.515,13.983,100.087,-0.0002747
9.61,115.015,13.983,100.087,-0.0002290
9.66,115.515,13.983,100.087,-0.0003665
9.71,116.015,13.983,100.087,-0.0006411
9.76,116.515,13.983,100.086,-0.0004121
9.81,117.016,13.983,100.086,-0.0000916
9.86,117.516,13.983,100.086,-0.0002290
9.91,118.016,13.983,100.086,-0.0004578
9.96,118.516,13.983,100.086,-0.0005039
10.01,119.016,13.983,100.086,-0.0001375
10.06,119.516,13.983,100.086,-0.0000458
10.11,120.016,13.983,100.086,-0.0002750
10.16,120.516,13.983,100.086,-0.0000916
10.21,121.016,13.983,100.085,0.0000000
10.26,121.516,13.983,100.085,-0.0000917
10.31,122.016,13.983,100.085,-0.0005501
10.36,122.517,13.983,100.085,-0.0000916
10.41,123.017,13.983,100.085,0.0002748
10.46,123.517,13.983,100.085,0.0000916
10.51,124.017,13.983,100.085,-0.0002289
10.56,124.517,13.983,100.085,-0.0005039
10.61,125.017,13.983,100.085,-0.0002291
10.66,125.517,13.983,100.085,-0.0001375
10.71,126.017,13.983,100.085,-0.0000000
10.76,126.517,13.983,100.085,-0.0000917
10.81,127.017,13.983,100.085,-0.0001833
10.86,127.517,13.983,100.085,0.0003208
10.91,128.018,13.983,100.085,0.0000000
10.96,128.518,13.983,100.085,-0.0000917
11.01,129.018,13.983,100.085,-0.0000917
11.06,129.518,13.983,100.085,-0.0001376
11.11,130.018,13.983,100.085,0.0000000
11.16,130.518,13.983,100.084,-0.0000916
11.21,131.018,13.983,100.084,-0.0002288
11.26,131.518,13.983,100.084,-0.0000458
11.31,132.018,13.983,100.084,0.0000457
11.36,132.518,13.983,100.084,-0.0003663
11.41,133.018,13.983,100.084,-0.0004576
11.46,133.518,13.983,100.084,-0.0006408
11.51,134.019,13.983,100.084,-0.0003203
11.56,134.519,13.983,100.084,-0.0004576
11.61,135.019,13.983,100.083,-0.0002747
11.66,135.519,13.983,100.083,-0.0004576
11.71,136.019,13.983,100.083,-0.0003665
11.76,136.519,13.983,100.083,-0.0005039
11.81,137.019,13.983,100.082,-0.0007772
11.86,137.519,13.983,100.082,-0.0007311
11.91,138.019,13.983,100.081,-0.0008684
11.96,138.519,13.982,100.081,-0.0013691
12.01,139.019,13.982,100.08,-0.0014120
12.06,139.52,13.982,100.079,-0.0016836
12.11,140.02,13.982,100.078,-0.0021358
12.16,140.52,13.982,100.077,-0.0022713
12.2,141.02,13.982,100.076,-0.0025448
12.25,141.52,13.982,100.075,-0.0026361
12.31,142.02,13.981,100.073,-0.0024086
12.35,142.52,13.981,100.072,-0.0023186
12.4,143.02,13.981,100.071,-0.0026388
12.45,143.52,13.981,100.07,-0.0026879
12.5,144.02,13.981,100.068,-0.0021878
12.55,144.52,13.981,100.067,-0.0020995
12.6,145.021,13.98,100.066,-0.0019199
12.65,145.521,13.98,100.065,-0.0020123
12.7,146.021,13.98,100.064,-0.0016024
12.75,146.521,13.98,100.063,-0.0021101
12.8,147.021,13.98,100.062,-0.0020661
12.85,147.521,13.98,100.061,-0.0022518
12.9,148.021,13.98,100.06,-0.0017479
12.95,148.521,13.979,100.059,-0.0016572
13,149.021,13.979,100.059,-0.0017956
13.05,149.521,13.979,100.058,-0.0017479
13.11,150.021,13.979,100.057,-0.0014699
13.16,150.522,13.979,100.056,-0.0016070
13.21,151.022,13.979,100.055,-0.0016543
13.26,151.522,13.979,100.055,-0.0013796
13.31,152.022,13.979,100.054,-0.0016564
13.36,152.522,13.979,100.053,-0.0017934
13.41,153.022,13.978,100.052,-0.0019261
13.46,153.522,13.978,100.051,-0.0014652
13.51,154.022,13.978,100.051,-0.0012355
13.56,154.522,13.978,100.05,-0.0015578
13.61,155.022,13.978,100.049,-0.0014217
13.66,155.522,13.978,100.048,-0.0019277
13.71,156.023,13.978,100.047,-0.0016529
13.76,156.523,13.978,100.046,-0.0016535
13.81,157.023,13.978,100.046,-0.0017913
13.86,157.523,13.977,100.045,-0.0017447
13.91,158.023,13.977,100.044,-0.0016980
13.96,158.523,13.977,100.043,-0.0017890
14.01,159.023,13.977,100.042,-0.0016960
14.06,159.523,13.977,100.041,-0.0016965
14.11,160.023,13.977,100.04,-0.0020176
14.16,160.523,13.977,100.039,-0.0019731
14.21,161.023,13.977,100.039,-0.0017893
14.26,161.523,13.976,100.038,-0.0018790
14.31,162.024,13.976,100.037,-0.0018325
14.36,162.524,13.976,100.036,-0.0020615
14.41,163.024,13.976,100.035,-0.0019241
14.46,163.524,13.976,100.034,-0.0019257
14.51,164.024,13.976,100.033,-0.0016968
14.56,164.524,13.976,100.032,-0.0021090
14.61,165.024,13.976,100.031,-0.0019245
14.66,165.524,13.975,100.03,-0.0020156
14.71,166.024,13.975,100.029,-0.0016040
14.76,166.524,13.975,100.028,-0.0016963
14.81,167.024,13.975,100.027,-0.0020638
14.86,167.525,13.975,100.026,-0.0019248
14.91,168.025,13.975,100.025,-0.0020604
14.96,168.525,13.974,100.024,-0.0021534
15.01,169.025,13.974,100.023,-0.0022915
15.06,169.525,13.974,100.022,-0.0021994
15.11,170.025,13.974,100.021,-0.0021049
15.16,170.525,13.974,100.02,-0.0021030
15.21,171.025,13.974,100.018,-0.0023330
15.26,171.525,13.974,100.017,-0.0024736
15.31,172.025,13.973,100.016,-0.0018804
15.36,172.525,13.973,100.015,-0.0022961
15.41,173.026,13.973,100.014,-0.0022967
15.46,173.526,13.973,100.013,-0.0020174
15.51,174.026,13.973,100.012,-0.0021520
15.56,174.526,13.973,100.011,-0.0018290
15.61,175.026,13.973,100.01,-0.0023738
15.66,175.526,13.972,100.008,-0.0024241
15.71,176.026,13.972,100.007,-0.0022890
15.76,176.526,13.972,100.006,-0.0024260
15.81,177.026,13.972,100.005,-0.0025206
15.86,177.526,13.972,100.004,-0.0025241
15.91,178.026,13.972,100.003,-0.0026156
15.96,178.527,13.971,100.001,-0.0022930
16.01,179.027,13.971,100,-0.0023831
16.06,179.527,13.971,99.999,-0.0023827
16.11,180.027,13.971,99.998,-0.0023367
16.16,180.527,13.971,99.996,-0.0027905
16.21,181.027,13.971,99.995,-0.0024714
16.26,181.527,13.97,99.994,-0.0024714
16.31,182.027,13.97,99.993,-0.0026116
16.36,182.527,13.97,99.991,-0.0028417
16.41,183.027,13.97,99.99,-0.0025199
16.46,183.527,13.97,99.989,-0.0023805
16.51,184.028,13.969,99.988,-0.0024256
16.56,184.528,13.969,99.986,-0.0022890
16.61,185.028,13.969,99.985,-0.0024721
16.66,185.528,13.969,99.984,-0.0023825
16.71,186.028,13.969,99.983,-0.0026596
16.76,186.528,13.969,99.981,-0.0025213
16.81,187.028,13.968,99.98,-0.0025216
16.86,187.528,13.968,99.979,-0.0027052
16.91,188.028,13.968,99.977,-0.0025229
16.96,188.528,13.968,99.976,-0.0023860
17.01,189.028,13.968,99.975,-0.0026601
17.06,189.528,13.967,99.973,-0.0026576
17.11,190.029,13.967,99.972,-0.0029317
17.16,190.529,13.967,99.971,-0.0026116
17.21,191.029,13.967,99.969,-0.0026552
17.26,191.529,13.967,99.968,-0.0024691
17.31,192.029,13.967,99.967,-0.0026063
17.36,192.529,13.966,99.965,-0.0027422
17.41,193.029,13.966,99.964,-0.0027035
17.46,193.529,13.966,99.963,-0.0024759
17.51,194.029,13.966,99.961,-0.0027948
17.56,194.529,13.966,99.96,-0.0027533
17.61,195.029,13.965,99.959,-0.0027994
17.66,195.53,13.965,99.957,-0.0028002
17.71,196.03,13.965,99.956,-0.0027530
17.76,196.53,13.965,99.954,-0.0027523
17.81,197.03,13.965,99.953,-0.0028415
17.86,197.53,13.964,99.952,-0.0029746
17.91,198.03,13.964,99.95,-0.0029269
17.96,198.53,13.964,99.949,-0.0027457
18.01,199.03,13.964,99.947,-0.0029762
18.06,199.53,13.964,99.946,-0.0030289
18.11,200.03,13.963,99.945,-0.0028406
18.16,200.53,13.963,99.943,-0.0026152
18.21,201.031,13.963,99.942,-0.0027505
18.26,201.531,13.963,99.94,-0.0030692
18.31,202.031,13.963,99.939,-0.0029743
18.36,202.531,13.962,99.937,-0.0027432
18.41,203.031,13.962,99.936,-0.0028820
18.46,203.531,13.962,99.935,-0.0029291
18.51,204.031,13.962,99.933,-0.0030669
18.56,204.531,13.962,99.932,-0.0030256
18.61,205.031,13.961,99.93,-0.0032551
18.66,205.531,13.961,99.929,-0.0032081
18.71,206.031,13.961,99.927,-0.0032569
18.76,206.532,13.961,99.926,-0.0026163
18.81,207.032,13.961,99.924,-0.0029811
18.86,207.532,13.96,99.923,-0.0028809
18.91,208.032,13.96,99.921,-0.0027905
18.96,208.532,13.96,99.92,-0.0031113
19.01,209.032,13.96,99.918,-0.0032465
19.06,209.532,13.96,99.917,-0.0030706
19.11,210.032,13.959,99.915,-0.0031184
19.16,210.532,13.959,99.914,-0.0032134
19.21,211.032,13.959,99.912,-0.0029439
19.26,211.532,13.959,99.911,-0.0028004
19.32,212.033,13.958,99.909,-0.0027974
19.37,212.533,13.958,99.908,-0.0028865
19.42,213.033,13.958,99.906,-0.0028851
19.47,213.533,13.958,99.905,-0.0028825
19.52,214.033,13.958,99.903,-0.0028806
19.57,214.533,13.957,99.902,-0.0030203
19.62,215.033,13.957,99.9,-0.0028830
19.67,215.533,13.957,99.898,-0.0031599
19.72,216.033,13.957,99.897,-0.0030725
19.77,216.533,13.957,99.895,-0.0031198
19.82,217.033,13.956,99.894,-0.0033471
19.87,217.533,13.956,99.892,-0.0032958
19.92,218.034,13.956,99.891,-0.0031556
19.97,218.534,13.956,99.889,-0.0031955
20.02,219.034,13.955,99.887,-0.0027846
20.07,219.534,13.955,99.886,-0.0031181
20.12,220.034,13.955,99.884,-0.0032584
20.17,220.534,13.955,99.883,-0.0032584
20.22,221.034,13.955,99.881,-0.0033914
20.27,221.534,13.954,99.879,-0.0033419
20.32,222.034,13.954,99.878,-0.0033465
20.37,222.534,13.954,99.876,-0.0030714
20.42,223.034,13.954,99.875,-0.0030714
20.47,223.535,13.953,99.873,-0.0029789
20.52,224.035,13.953,99.871,-0.0029781
20.57,224.535,13.953,99.87,-0.0028414
20.62,225.035,13.953,99.868,-0.0030278
20.67,225.535,13.953,99.867,-0.0033465
20.72,226.035,13.952,99.865,-0.0033416
20.77,226.535,13.952,99.863,-0.0033830
20.82,227.035,13.952,99.862,-0.0034703
20.87,227.535,13.952,99.86,-0.0036580
20.92,228.035,13.951,99.858,-0.0033935
20.97,228.535,13.951,99.857,-0.0033477
21.02,229.036,13.951,99.855,-0.0034325
21.07,229.536,13.951,99.853,-0.0036640
21.12,230.036,13.95,99.851,-0.0033006
21.17,230.536,13.95,99.85,-0.0032562
21.22,231.036,13.95,99.848,-0.0034840
21.27,231.536,13.95,99.846,-0.0033461
21.32,232.036,13.949,99.845,-0.0033007
21.37,232.536,13.949,99.843,-0.0035731
21.42,233.036,13.949,99.841,-0.0034341
21.47,233.536,13.949,99.84,-0.0031116
21.52,234.036,13.949,99.838,-0.0034350
21.57,234.537,13.948,99.836,-0.0033889
21.62,235.037,13.948,99.834,-0.0035266
21.67,235.537,13.948,99.833,-0.0036192
21.72,236.037,13.948,99.831,-0.0032967
21.77,236.537,13.947,99.829,-0.0030650
21.82,237.037,13.947,99.828,-0.0034767
21.87,237.537,13.947,99.826,-0.0035240
21.92,238.037,13.947,99.824,-0.0035734
21.97,238.537,13.946,99.822,-0.0035763
22.02,239.037,13.946,99.821,-0.0035289
22.07,239.537,13.946,99.819,-0.0033914
22.12,240.038,13.946,99.817,-0.0031173
22.17,240.538,13.945,99.815,-0.0035289
22.22,241.038,13.945,99.814,-0.0036189
22.27,241.538,13.945,99.812,-0.0035263
22.32,242.038,13.945,99.81,-0.0036195
22.37,242.538,13.944,99.808,-0.0035266
22.42,243.038,13.944,99.807,-0.0038937
22.47,243.538,13.944,99.805,-0.0035295
22.52,244.038,13.944,99.803,-0.0036657
22.57,244.538,13.943,99.801,-0.0035705
22.62,245.038,13.943,99.799,-0.0038046
22.67,245.538,13.943,99.798,-0.0035315
22.72,246.039,13.943,99.796,-0.0037649
22.77,246.539,13.942,99.794,-0.0034454
22.82,247.039,13.942,99.792,-0.0033945
22.87,247.539,13.942,99.79,-0.0035714
22.92,248.039,13.942,99.789,-0.0038419
22.97,248.539,13.941,99.787,-0.0039366
23.02,249.039,13.941,99.785,-0.0039431
23.07,249.539,13.941,99.783,-0.0039442
23.12,250.039,13.941,99.781,-0.0035214
23.17,250.539,13.94,99.779,-0.0037570
23.22,251.039,13.94,99.777,-0.0039001
23.27,251.54,13.94,99.775,-0.0034378
23.32,252.04,13.94,99.774,-0.0034792
23.37,252.54,13.939,99.772,-0.0034319
23.42,253.04,13.939,99.77,-0.0035701
23.47,253.54,13.939,99.768,-0.0038073
23.52,254.04,13.939,99.766,-0.0037183
23.57,254.54,13.938,99.764,-0.0039027
23.62,255.04,13.938,99.762,-0.0039450
23.67,255.54,13.938,99.76,-0.0041228
23.72,256.04,13.937,99.759,-0.0039813
23.77,256.54,13.937,99.757,-0.0042085
23.82,257.041,13.937,99.755,-0.0036630
23.87,257.541,13.937,99.753,-0.0038934
23.92,258.041,13.936,99.751,-0.0036643
23.97,258.541,13.936,99.749,-0.0037546
24.02,259.041,13.936,99.747,-0.0038869
24.07,259.541,13.936,99.745,-0.0040219
24.12,260.041,13.935,99.743,-0.0036583
24.17,260.541,13.935,99.741,-0.0037948
24.22,261.041,13.935,99.739,-0.0040293
24.27,261.541,13.934,99.737,-0.0039864
24.32,262.041,13.934,99.735,-0.0039886
24.37,262.542,13.934,99.733,-0.0040345
24.42,263.042,13.934,99.731,-0.0038039
24.47,263.542,13.933,99.729,-0.0041224
24.52,264.042,13.933,99.727,-0.0039835
24.57,264.542,13.933,99.725,-0.0040345
24.62,265.042,13.933,99.723,-0.0037143
24.67,265.542,13.932,99.721,-0.0041246
24.72,266.042,13.932,99.719,-0.0038905
24.77,266.542,13.932,99.717,-0.0039813
24.82,267.042,13.931,99.715,-0.0042536
24.87,267.542,13.931,99.713,-0.0044348
24.92,268.043,13.931,99.711,-0.0042543
24.97,268.543,13.931,99.709,-0.0041704
25.02,269.043,13.93,99.707,-0.0039450
25.07,269.543,13.93,99.705,-0.0041284
25.12,270.043,13.93,99.703,-0.0041323
25.17,270.543,13.929,99.701,-0.0040826
25.22,271.043,13.929,99.699,-0.0043554
25.27,271.543,13.929,99.697,-0.0040307
25.32,272.043,13.929,99.694,-0.0041209
25.37,272.543,13.928,99.692,-0.0039806
25.42,273.043,13.928,99.69,-0.0042071
25.47,273.543,13.928,99.688,-0.0042543
25.52,274.044,13.927,99.686,-0.0041209
25.57,274.544,13.927,99.684,-0.0043064
25.62,275.044,13.927,99.682,-0.0041270
25.67,275.544,13.926,99.68,-0.0044938
25.72,276.044,13.926,99.678,-0.0044954
25.77,276.544,13.926,99.675,-0.0043064
25.82,277.044,13.926,99.673,-0.0044382
25.87,277.544,13.925,99.671,-0.0046186
25.92,278.044,13.925,99.669,-0.0044414
25.97,278.544,13.925,99.667,-0.0043538
26.02,279.044,13.924,99.664,-0.0042147
26.07,279.545,13.924,99.662,-0.0044397
26.12,280.045,13.924,99.66,-0.0044872
26.17,280.545,13.923,99.658,-0.0045355
26.22,281.045,13.923,99.656,-0.0043080
26.27,281.545,13.923,99.653,-0.0043578
26.32,282.045,13.922,99.651,-0.0042629
26.37,282.545,13.922,99.649,-0.0044905
26.42,283.045,13.922,99.647,-0.0045830
26.47,283.545,13.922,99.645,-0.0043956
26.52,284.045,13.921,99.642,-0.0042101
26.57,284.545,13.921,99.64,-0.0042465
26.62,285.046,13.921,99.638,-0.0046575
26.67,285.546,13.92,99.636,-0.0042086
26.72,286.046,13.92,99.634,-0.0040751
26.77,286.546,13.92,99.631,-0.0044446
26.82,287.046,13.919,99.629,-0.0044979
26.87,287.546,13.919,99.627,-0.0043610
26.92,288.046,13.919,99.625,-0.0042582
26.97,288.546,13.918,99.623,-0.0045729
27.02,289.046,13.918,99.62,-0.0044847
27.07,289.546,13.918,99.618,-0.0045346
27.12,290.046,13.918,99.616,-0.0046746
27.17,290.547,13.917,99.614,-0.0045855
27.22,291.047,13.917,99.611,-0.0045846
27.27,291.547,13.917,99.609,-0.0044872
27.32,292.047,13.916,99.607,-0.0048103
27.37,292.547,13.916,99.604,-0.0046703
27.42,293.047,13.916,99.602,-0.0046730
27.47,293.547,13.915,99.6,-0.0047706
27.52,294.047,13.915,99.597,-0.0045897
27.57,294.547,13.915,99.595,-0.0049065
27.62,295.047,13.914,99.593,-0.0046245
27.67,295.547,13.914,99.59,-0.0044357
27.72,296.048,13.914,99.588,-0.0042528
27.77,296.548,13.913,99.586,-0.0045754
27.82,297.048,13.913,99.583,-0.0046703
27.87,297.548,13.913,99.581,-0.0048490
27.92,298.048,13.912,99.579,-0.0044382
27.97,298.548,13.912,99.576,-0.0045763
28.02,299.048,13.912,99.574,-0.0047222
28.07,299.548,13.911,99.572,-0.0048651
28.12,300.048,13.911,99.569,-0.0048651
28.17,300.548,13.911,99.567,-0.0045888
28.22,301.048,13.91,99.565,-0.0045396
28.27,301.548,13.91,99.562,-0.0048060
28.32,302.049,13.91,99.56,-0.0043923
28.37,302.549,13.909,99.558,-0.0047489
28.42,303.049,13.909,99.555,-0.0047945
28.47,303.549,13.909,99.553,-0.0042489
28.52,304.049,13.908,99.551,-0.0045704
28.57,304.549,13.908,99.548,-0.0046618
28.62,305.049,13.908,99.546,-0.0045304
28.67,305.549,13.907,99.544,-0.0048993
28.72,306.049,13.907,99.541,-0.0051329
28.77,306.549,13.907,99.539,-0.0049982
28.82,307.049,13.906,99.536,-0.0048148
28.87,307.55,13.906,99.534,-0.0048121
28.92,308.05,13.906,99.531,-0.0049863
28.97,308.55,13.905,99.529,-0.0051674
29.02,309.05,13.905,99.527,-0.0049854
29.07,309.55,13.905,99.524,-0.0048059
29.12,310.05,13.904,99.522,-0.0048993
29.17,310.55,13.904,99.519,-0.0050824
29.22,311.05,13.904,99.517,-0.0051311
29.27,311.55,13.903,99.514,-0.0047231
29.32,312.05,13.903,99.512,-0.0049083
29.37,312.55,13.903,99.509,-0.0048624
29.42,313.051,13.902,99.507,-0.0048139
29.47,313.551,13.902,99.504,-0.0049451
29.52,314.051,13.902,99.502,-0.0050348
29.57,314.551,13.901,99.499,-0.0051254
29.62,315.051,13.901,99.497,-0.0050384
29.67,315.551,13.901,99.494,-0.0048077
29.72,316.051,13.9,99.492,-0.0050321
29.77,316.551,13.9,99.49,-0.0051169
29.82,317.051,13.9,99.487,-0.0050292
29.87,317.551,13.899,99.485,-0.0051712
29.92,318.051,13.899,99.482,-0.0050871
29.97,318.552,13.898,99.48,-0.0051376
30.02,319.052,13.898,99.477,-0.0050496
30.07,319.552,13.898,99.475,-0.0048183
30.12,320.052,13.897,99.472,-0.0048552
30.17,320.552,13.897,99.47,-0.0050759
30.22,321.052,13.897,99.467,-0.0052626
30.27,321.552,13.896,99.464,-0.0049423
30.32,322.052,13.896,99.462,-0.0048885
30.37,322.552,13.896,99.459,-0.0053444
30.42,323.052,13.895,99.457,-0.0052131
30.47,323.552,13.895,99.454,-0.0053999
30.52,324.053,13.895,99.451,-0.0052733
30.57,324.553,13.894,99.449,-0.0052685
30.62,325.053,13.894,99.446,-0.0050946
30.67,325.553,13.893,99.444,-0.0050046
30.72,326.053,13.893,99.441,-0.0051311
30.77,326.553,13.893,99.438,-0.0050852
30.82,327.053,13.892,99.436,-0.0052617
30.87,327.553,13.892,99.433,-0.0051235
30.92,328.053,13.892,99.43,-0.0053055
30.97,328.553,13.891,99.428,-0.0053980
31.02,329.053,13.891,99.425,-0.0055861
31.07,329.553,13.89,99.422,-0.0053601
31.12,330.054,13.89,99.419,-0.0054996
31.17,330.554,13.89,99.417,-0.0053114
31.22,331.054,13.889,99.414,-0.0056216
31.27,331.554,13.889,99.411,-0.0053425
31.32,332.054,13.889,99.409,-0.0056247
31.37,332.554,13.888,99.406,-0.0053133
31.42,333.054,13.888,99.403,-0.0055015
31.47,333.554,13.887,99.4,-0.0056829
31.52,334.054,13.887,99.398,-0.0054079
31.57,334.554,13.887,99.395,-0.0052626
31.62,335.054,13.886,99.392,-0.0054925
31.67,335.555,13.886,99.389,-0.0059872
31.72,336.055,13.885,99.387,-0.0057182
31.77,336.555,13.885,99.384,-0.0054995
31.82,337.055,13.885,99.381,-0.0059633
31.87,337.555,13.884,99.378,-0.0060169
31.92,338.055,13.884,99.375,-0.0058791
31.97,338.555,13.883,99.372,-0.0058726
32.02,339.055,13.883,99.369,-0.0059960
32.07,339.555,13.883,99.366,-0.0055272
32.12,340.055,13.882,99.363,-0.0057513
32.17,340.555,13.882,99.361,-0.0055231
32.22,341.056,13.881,99.358,-0.0058065
32.27,341.556,13.881,99.355,-0.0059524
32.32,342.056,13.881,99.352,-0.0060964
32.37,342.556,13.88,99.349,-0.0057767
32.42,343.056,13.88,99.346,-0.0064220
32.47,343.556,13.879,99.342,-0.0061984
32.52,344.056,13.879,99.339,-0.0060529
32.57,344.556,13.878,99.336,-0.0063985
32.62,345.056,13.878,99.333,-0.0061131
32.67,345.556,13.878,99.33,-0.0062066
32.72,346.056,13.877,99.327,-0.0060296
32.77,346.557,13.877,99.324,-0.0060406
32.82,347.057,13.876,99.321,-0.0065536
32.87,347.557,13.876,99.318,-0.0064161
32.92,348.057,13.875,99.314,-0.0063692
32.97,348.557,13.875,99.311,-0.0065596
33.02,349.057,13.874,99.308,-0.0063668
33.07,349.557,13.874,99.305,-0.0067803
33.12,350.057,13.874,99.301,-0.0067766
33.17,350.557,13.873,99.298,-0.0064875
33.22,351.057,13.873,99.295,-0.0067208
33.27,351.557,13.872,99.291,-0.0064959
33.32,352.058,13.872,99.288,-0.0067802
33.37,352.558,13.871,99.285,-0.0069699
33.42,353.058,13.871,99.281,-0.0069763
33.47,353.558,13.87,99.278,-0.0069802
33.52,354.058,13.87,99.274,-0.0072544
33.57,354.558,13.869,99.27,-0.0073462
33.62,355.058,13.869,99.267,-0.0074812
33.67,355.558,13.868,99.263,-0.0076535
33.72,356.058,13.868,99.259,-0.0072802
33.77,356.558,13.867,99.256,-0.0074538
33.82,357.058,13.867,99.252,-0.0076824
33.87,357.558,13.866,99.248,-0.0075370
33.92,358.059,13.866,99.244,-0.0078894
33.97,358.559,13.865,99.241,-0.0075758
34.02,359.059,13.865,99.237,-0.0080586
34.07,359.559,13.864,99.233,-0.0077135
34.12,360.059,13.863,99.229,-0.0077796
34.17,360.559,13.863,99.225,-0.0080851
34.22,361.059,13.862,99.22,-0.0080866
34.27,361.559,13.862,99.216,-0.0085056
34.32,362.059,13.861,99.212,-0.0084769
34.37,362.559,13.861,99.208,-0.0083333
34.42,363.059,13.86,99.204,-0.0088483
34.47,363.56,13.859,99.199,-0.0087945
34.52,364.06,13.859,99.195,-0.0092541
34.57,364.56,13.858,99.19,-0.0090284
34.62,365.06,13.857,99.186,-0.0090659
34.67,365.56,13.857,99.181,-0.0092084
34.72,366.06,13.856,99.177,-0.0094409
34.77,366.56,13.855,99.172,-0.0095238
34.82,367.06,13.855,99.167,-0.0096981
34.87,367.56,13.854,99.162,-0.0101864
34.92,368.06,13.853,99.157,-0.0100969
34.97,368.56,13.853,99.152,-0.0103785
35.02,369.061,13.852,99.147,-0.0105253
35.07,369.561,13.851,99.141,-0.0106821
35.12,370.061,13.85,99.136,-0.0108855
35.18,370.561,13.85,99.13,-0.0108456
35.23,371.061,13.849,99.125,-0.0112008
35.28,371.561,13.848,99.119,-0.0114115
35.33,372.061,13.847,99.113,-0.0114779
35.38,372.561,13.846,99.107,-0.0119178
35.43,373.061,13.846,99.101,-0.0119416
35.47,373.561,13.845,99.095,-0.0124454
35.52,374.061,13.844,99.089,-0.0131507
35.57,374.562,13.843,99.083,-0.0133912
35.62,375.062,13.842,99.076,-0.0137569
35.67,375.562,13.841,99.069,-0.0140033
35.72,376.062,13.84,99.062,-0.0138405
35.77,376.562,13.839,99.055,-0.0148247
35.82,377.062,13.838,99.047,-0.0151000
35.87,377.562,13.837,99.04,-0.0153988
35.92,378.062,13.836,99.032,-0.0158425
35.97,378.562,13.835,99.024,-0.0157051
36.02,379.062,13.834,99.016,-0.0164835
36.07,379.562,13.833,99.007,-0.0171546
36.12,380.063,13.831,98.999,-0.0173897
36.17,380.563,13.83,98.99,-0.0177068
36.22,381.063,13.829,98.981,-0.0184813
36.27,381.563,13.828,98.972,-0.0188014
36.32,382.063,13.826,98.962,-0.0192518
36.37,382.563,13.825,98.952,-0.0200073
36.42,383.063,13.823,98.942,-0.0203839
36.47,383.563,13.822,98.932,-0.0212795
36.52,384.063,13.82,98.921,-0.0213710
36.57,384.563,13.819,98.91,-0.0219901
36.62,385.063,13.817,98.899,-0.0229979
36.67,385.563,13.816,98.888,-0.0235677
36.72,386.064,13.814,98.876,-0.0241581
36.77,386.564,13.812,98.864,-0.0243322
36.82,387.064,13.811,98.851,-0.0250457
36.87,387.564,13.809,98.839,-0.0257911
36.92,388.064,13.807,98.825,-0.0262580
36.97,388.564,13.805,98.812,-0.0271123
37.02,389.064,13.803,98.798,-0.0278032
37.07,389.564,13.801,98.784,-0.0285035
37.12,390.064,13.799,98.77,-0.0297695
37.17,390.564,13.797,98.755,-0.0299469
37.22,391.064,13.795,98.739,-0.0308326
37.27,391.565,13.793,98.724,-0.0318681
37.32,392.065,13.791,98.708,-0.0321886
37.37,392.565,13.788,98.692,-0.0330431
37.42,393.065,13.786,98.675,-0.0339908
37.47,393.565,13.784,98.658,-0.0347248
37.52,394.065,13.781,98.64,-0.0353211
37.57,394.565,13.779,98.622,-0.0361794
37.62,395.065,13.776,98.604,-0.0369032
37.67,395.565,13.774,98.585,-0.0376231
37.72,396.065,13.771,98.566,-0.0385774
37.77,396.565,13.768,98.546,-0.0394881
37.82,397.066,13.765,98.526,-0.0409649
37.87,397.566,13.762,98.506,-0.0416056
37.92,398.066,13.759,98.484,-0.0431430
37.97,398.566,13.756,98.463,-0.0442311
38.02,399.066,13.753,98.441,-0.0451625
38.07,399.566,13.75,98.418,-0.0459670
38.12,400.066,13.747,98.395,-0.0467807
38.17,400.566,13.744,98.371,-0.0479890
38.22,401.066,13.74,98.347,-0.0491308
38.27,401.566,13.737,98.322,-0.0503475
38.32,402.066,13.733,98.297,-0.0512258
38.37,402.567,13.73,98.271,-0.0528582
38.42,403.067,13.726,98.244,-0.0543040
38.47,403.567,13.722,98.216,-0.0557843
38.52,404.067,13.718,98.188,-0.0569638
38.57,404.567,13.714,98.159,-0.0585437
38.62,405.067,13.71,98.13,-0.0598810
38.67,405.567,13.706,98.099,-0.0618481
38.72,406.067,13.701,98.068,-0.0634950
38.77,406.567,13.697,98.036,-0.0649826
38.82,407.067,13.692,98.003,-0.0671915
38.87,407.567,13.687,97.969,-0.0687271
38.92,408.068,13.683,97.934,-0.0710748
38.97,408.568,13.678,97.898,-0.0729548
39.02,409.068,13.672,97.861,-0.0757103
39.07,409.568,13.667,97.823,-0.0786606
39.12,410.068,13.661,97.781,-0.0863565
39.17,410.568,13.655,97.737,-0.0885211
39.22,411.068,13.649,97.691,-0.0960695
39.27,411.568,13.642,97.641,-0.1011880
39.32,412.068,13.634,97.588,-0.1110600
39.37,412.568,13.626,97.532,-0.1142270
39.42,413.068,13.618,97.474,-0.1178090
39.47,413.568,13.61,97.414,-0.1217230
39.52,414.069,13.601,97.352,-0.1268330
39.57,414.569,13.592,97.288,-0.1332690
39.62,415.069,13.583,97.222,-0.1373120
39.67,415.569,13.574,97.154,-0.1339920
39.72,416.069,13.564,97.084,-0.1442240
39.77,416.569,13.554,97.013,-0.1455130
39.82,417.069,13.543,96.938,-0.1511020
39.87,417.569,13.533,96.86,-0.1543720
39.92,418.069,13.521,96.781,-0.1569790
39.97,418.569,13.51,96.7,-0.1697270
40.02,419.069,13.499,96.617,-0.1711010
40.07,419.57,13.487,96.532,-0.1719580
40.12,420.07,13.474,96.444,-0.1770530
40.17,420.57,13.462,96.353,-0.1852190
40.22,421.07,13.449,96.26,-0.1875120
40.27,421.57,13.435,96.164,-0.1927330
40.33,422.07,13.421,96.062,-0.2005120
40.38,422.57,13.407,95.96,-0.2007030
40.43,423.07,13.392,95.856,-0.2090490
40.47,423.57,13.378,95.752,-0.2182690
40.53,424.07,13.362,95.639,-0.2243820
40.58,424.57,13.346,95.524,-0.2339200
40.63,425.071,13.33,95.407,-0.2318120
40.68,425.571,13.313,95.288,-0.2402930
40.73,426.071,13.296,95.164,-0.2493130
40.78,426.571,13.278,95.037,-0.2580670
40.83,427.071,13.259,94.906,-0.2715560
40.88,427.571,13.241,94.771,-0.2757010
40.93,428.071,13.221,94.632,-0.2802590
40.98,428.571,13.201,94.489,-0.2923770
41.03,429.071,13.181,94.341,-0.3024530
41.08,429.571,13.159,94.188,-0.3089880
41.13,430.071,13.137,94.03,-0.3180990
41.18,430.572,13.114,93.866,-0.3370760
41.23,431.072,13.09,93.694,-0.3419270
41.28,431.572,13.066,93.519,-0.3574320
41.33,432.072,13.04,93.337,-0.3699820
41.38,432.572,13.014,93.15,-0.3814300
41.43,433.072,12.987,92.956,-0.3922760
41.48,433.572,12.959,92.754,-0.4138610
41.53,434.072,12.929,92.544,-0.4196080
41.58,434.572,12.899,92.328,-0.4366770
41.63,435.072,12.868,92.102,-0.4558340
41.67,435.572,12.836,91.878,-0.4736550
41.72,436.073,12.802,91.633,-0.4997260
41.77,436.573,12.767,91.381,-0.5136290
41.82,437.073,12.73,91.119,-0.5371180
41.87,437.573,12.692,90.843,-0.5628660
41.92,438.073,12.651,90.554,-0.5877780
41.97,438.573,12.609,90.25,-0.6204370
42.02,439.073,12.565,89.933,-0.6355980
42.07,439.573,12.519,89.606,-0.6786430
42.12,440.073,12.471,89.26,-0.6956500
42.17,440.573,12.421,88.901,-0.7261900
42.22,441.073,12.368,88.528,-0.7626770
42.27,441.573,12.314,88.139,-0.7949830
42.32,442.074,12.258,87.739,-0.8238620
42.37,442.574,12.199,87.317,-0.8807270
42.42,443.074,12.138,86.876,-0.9105120
42.47,443.574,12.074,86.418,-0.9299060
42.52,444.074,12.009,85.953,-0.9386550
42.57,444.574,11.941,85.472,-1.02488
42.63,445.074,11.87,84.961,-1.01481
42.68,445.574,11.801,84.463,-1.04532
42.73,446.074,11.727,83.938,-1.08799
42.78,446.574,11.651,83.391,-1.12047
42.83,447.074,11.571,82.82,-1.19285
42.88,447.575,11.485,82.206,-1.25652
42.92,448.075,11.397,81.577,-1.28959
42.97,448.575,11.306,80.921,-1.3194
43.03,449.075,11.211,80.242,-1.36371
43.08,449.575,11.113,79.545,-1.43089
43.13,450.075,11.012,78.816,-1.49251
43.18,450.575,10.905,78.057,-1.54188
43.23,451.075,10.796,77.271,-1.62417
43.28,451.575,10.68,76.443,-1.70385
43.33,452.075,10.562,75.602,-1.72644
43.38,452.575,10.44,74.725,-1.81182
43.43,453.076,10.309,73.789,-1.93704
43.48,453.576,10.173,72.815,-1.93423
43.53,454.076,10.036,71.834,-2.01242
43.58,454.576,9.893,70.809,-2.09194
43.63,455.076,9.742,69.728,-2.22128
43.68,455.576,9.584,68.601,-2.30197
43.73,456.076,9.422,67.436,-2.3377
43.78,456.576,9.256,66.251,-2.47077
43.83,457.076,9.083,65.012,-2.50834
43.88,457.576,8.905,63.741,-2.54592
43.93,458.076,8.721,62.423,-2.67502
43.98,458.577,8.532,61.067,-2.80368
44.03,459.077,8.327,59.602,-2.85341
44.08,459.577,8.126,58.16,-2.87411
44.13,460.077,7.926,56.73,-3.08039
44.18,460.577,7.709,55.176,-3.10136
44.23,461.077,7.488,53.596,-3.21591
44.28,461.577,7.264,51.994,-3.16029
44.33,462.077,7.034,50.349,-3.36048
44.38,462.577,6.787,48.579,-3.43202
44.43,463.077,6.545,46.849,-3.5319
44.48,463.577,6.297,45.069,-3.63812
44.53,464.078,6.048,43.288,-3.5141
44.58,464.578,5.796,41.488,-3.66401
44.63,465.078,5.542,39.667,-3.64929
44.68,465.578,5.287,37.841,-3.64754
44.73,466.078,5.031,36.007,-3.67813
44.78,466.578,4.772,34.154,-3.71591
44.83,467.078,4.51,32.281,-3.75259
44.88,467.578,4.249,30.416,-3.69659
44.93,468.078,3.992,28.573,-3.68929
44.98,468.578,3.73,26.695,-3.75745
45.03,469.078,3.47,24.839,-3.70856
45.08,469.578,3.229,23.109,-3.25934
45.13,470.079,2.996,21.444,-3.33938
45.18,470.579,2.763,19.778,-3.31402
45.23,471.079,2.534,18.137,-3.21301
45.28,471.579,2.311,16.54,-3.12673
45.33,472.079,2.108,15.09,-2.90889
45.38,472.579,1.907,13.648,-2.81698
45.43,473.079,1.715,12.273,-2.67429
45.48,473.579,1.533,10.975,-2.50326
45.53,474.079,1.368,9.789,-2.25931
45.58,474.579,1.212,8.675,-2.13982
45.62,475.079,1.073,7.681,-1.94592
45.67,475.58,0.9440000,6.754,-1.7452
45.72,476.08,0.8280000,5.929,-1.52704
45.77,476.58,0.7300000,5.224,-1.34757
45.82,477.08,0.6410000,4.587,-1.19149
45.87,477.58,0.5640000,4.037,-0.9954740
45.92,478.08,0.4990000,3.568,-0.8426090
45.97,478.58,0.4440000,3.178,-0.6865250
46.02,479.08,0.3990000,2.855,-0.5811880
46.07,479.58,0.3620000,2.592,-0.4714170
46.12,480.08,0.3330000,2.381,-0.3716230
46.17,480.58,0.3100000,2.216,-0.2891880
46.22,481.081,0.2920000,2.091,-0.2189490
46.27,481.581,0.2790000,1.999,-0.1559000
46.32,482.081,0.2700000,1.935,-0.1061210
46.37,482.581,0.2640000,1.893,-0.0628112
46.42,483.081,0.2610000,1.868,-0.0412720
46.47,483.581,0.2580000,1.847,-0.0426013
46.52,484.081,0.2550000,1.826,-0.0394304
46.57,484.581,0.2530000,1.807,-0.0348852
46.62,485.081,0.2500000,1.791,-0.0296726
46.67,485.581,0.2480000,1.778,-0.0245792
46.72,486.081,0.2470000,1.766,-0.0195615
46.77,486.582,0.2460000,1.758,-0.0154181
46.82,487.082,0.2450000,1.751,-0.0125990
46.87,487.582,0.2440000,1.745,-0.0098334
46.92,488.082,0.2430000,1.741,-0.0079194
46.97,488.582,0.2430000,1.737,-0.0059975
47.02,489.082,0.2420000,1.735,-0.0048705
47.07,489.582,0.2420000,1.732,-0.0040008
47.12,490.082,0.2420000,1.731,-0.0033443
47.17,490.582,0.2420000,1.729,-0.0023826
47.22,491.082,0.2410000,1.728,-0.0017170
47.27,491.582,0.2410000,1.727,-0.0015289
47.32,492.083,0.2410000,1.727,-0.0012956
47.37,492.583,0.2410000,1.726,-0.0006804
47.42,493.083,0.2410000,1.726,-0.0008565
47.47,493.583,0.2410000,1.725,-0.0006798
47.53,494.083,0.2410000,1.725,-0.0006755
47.58,494.583,0.2410000,1.725,-0.0004870
47.63,495.083,0.2410000,1.724,-0.0004261
47.68,495.583,0.2410000,1.724,-0.0002987
47.73,496.083,0.2410000,1.724,-0.0002603
47.78,496.583,0.2410000,1.724,-0.0002714
47.83,497.083,0.2410000,1.724,0.0000314
47.88,497.583,0.2410000,1.724,0.0000371
47.93,498.084,0.2410000,1.724,-0.0002864
47.98,498.584,0.2410000,1.723,-0.0001815
48.02,499.084,0.2410000,1.723,-0.0000965
48.07,499.584,0.2410000,1.723,-0.0000107
48.13,500.084,0.2410000,1.723,0.0000802
48.18,500.584,0.2410000,1.723,0.0000179
48.23,501.084,0.2410000,1.723,-0.0001423
48.28,501.584,0.2410000,1.723,-0.0002523
48.32,502.084,0.2410000,1.723,-0.0000889
48.37,502.584,0.2410000,1.723,-0.0003000
48.42,503.084,0.2410000,1.723,-0.0003689
48.47,503.585,0.2410000,1.723,-0.0002768
48.52,504.085,0.2410000,1.723,-0.0001176
48.57,504.585,0.2410000,1.723,0.0000412
48.62,505.085,0.2410000,1.723,-0.0002453
48.67,505.585,0.2410000,1.723,-0.0000912
48.72,506.085,0.2410000,1.722,-0.0001618
48.77,506.585,0.2410000,1.722,-0.0004038
48.82,507.085,0.2410000,1.722,-0.0000815
48.87,507.585,0.2410000,1.722,-0.0002696
48.92,508.085,0.2410000,1.722,-0.0001719
48.97,508.585,0.2410000,1.722,-0.0000329
49.02,509.086,0.2410000,1.722,0.0001231
49.07,509.586,0.2410000,1.722,-0.0002239
49.12,510.086,0.2410000,1.722,0.0000272
49.17,510.586,0.2410000,1.722,0.0001074
49.22,511.086,0.2410000,1.722,-0.0002529
49.27,511.586,0.2410000,1.722,-0.0001582
49.32,512.086,0.2410000,1.722,-0.0002422
49.37,512.586,0.2410000,1.722,-0.0001195
49.42,513.086,0.2410000,1.722,0.0000558
49.47,513.586,0.2410000,1.722,0.0000521
49.52,514.086,0.2410000,1.722,0.0001193
49.57,514.587,0.2410000,1.722,0.0001257
49.62,515.087,0.2410000,1.722,-0.0004300
49.67,515.587,0.2410000,1.721,-0.0001203
49.72,516.087,0.2400000,1.721,-0.0002499
49.77,516.587,0.2400000,1.721,-0.0000615
49.82,517.087,0.2400000,1.721,-0.0002833
49.87,517.587,0.2400000,1.721,-0.0001747
49.92,518.087,0.2400000,1.721,-0.0000165
49.97,518.587,0.2400000,1.721,-0.0000901
50.02,519.087,0.2400000,1.721,-0.0002408
50.07,519.587,0.2400000,1.721,-0.0003525
50.12,520.088,0.2400000,1.721,-0.0002767
50.17,520.588,0.2400000,1.721,0.0001713
50.22,521.088,0.2400000,1.721,-0.0001893
50.27,521.588,0.2400000,1.721,-0.0002115
50.32,522.088,0.2400000,1.721,-0.0001630
50.37,522.588,0.2400000,1.721,-0.0002533
50.42,523.088,0.2400000,1.721,-0.0002315
50.47,523.588,0.2400000,1.72,-0.0000803
50.52,524.088,0.2400000,1.72,-0.0002496
50.57,524.588,0.2400000,1.72,-0.0002941
50.62,525.088,0.2400000,1.72,-0.0000801
50.67,525.588,0.2400000,1.72,-0.0002592
50.72,526.089,0.2400000,1.72,-0.0001306
50.77,526.589,0.2400000,1.72,-0.0002660
50.82,527.089,0.2400000,1.72,-0.0004886
50.87,527.589,0.2400000,1.719,-0.0002478
50.92,528.089,0.2400000,1.719,-0.0000172
50.97,528.589,0.2400000,1.719,-0.0000714
51.02,529.089,0.2400000,1.719,-0.0004778
51.07,529.589,0.2400000,1.719,-0.0003381
51.12,530.089,0.2400000,1.719,-0.0001422
51.17,530.589,0.2400000,1.719,-0.0001922
51.22,531.089,0.2400000,1.719,-0.0001856
51.27,531.59,0.2400000,1.719,0.0001245
51.32,532.09,0.2400000,1.719,-0.0002316
51.37,532.59,0.2400000,1.718,-0.0002415
51.42,533.09,0.2400000,1.718,-0.0002584
51.47,533.59,0.2400000,1.718,-0.0002385
51.52,534.09,0.2400000,1.718,-0.0002103
51.57,534.59,0.2400000,1.718,-0.0005316
51.62,535.09,0.2400000,1.718,-0.0001120
51.67,535.59,0.2400000,1.718,0.0000085
51.72,536.09,0.2400000,1.718,-0.0002640
51.77,536.59,0.2400000,1.718,-0.0001376
51.82,537.091,0.2400000,1.717,-0.0002128
51.87,537.591,0.2400000,1.717,0.0001231
51.92,538.091,0.2400000,1.717,-0.0001258
51.97,538.591,0.2400000,1.717,-0.0004610
52.02,539.091,0.2400000,1.717,0.0000571
52.07,539.591,0.2400000,1.717,-0.0000514
52.12,540.091,0.2400000,1.717,-0.0003556
52.17,540.591,0.2400000,1.717,-0.0005243
52.22,541.091,0.2400000,1.717,-0.0002691
52.27,541.591,0.2400000,1.717,0.0000329
52.32,542.091,0.2400000,1.717,-0.0002232
52.37,542.592,0.2400000,1.717,-0.0003684
52.42,543.092,0.2400000,1.717,0.0000043
52.47,543.592,0.2400000,1.716,-0.0002014
52.52,544.092,0.2400000,1.716,-0.0002120
52.57,544.592,0.2400000,1.716,-0.0001636
52.62,545.092,0.2400000,1.716,-0.0000072
52.67,545.592,0.2400000,1.716,-0.0002458
52.72,546.092,0.2400000,1.716,-0.0003624
52.77,546.592,0.2400000,1.716,-0.0002602
52.82,547.092,0.2400000,1.716,-0.0002960
52.87,547.592,0.2400000,1.716,-0.0004495
52.92,548.093,0.2400000,1.716,0.0001100
52.97,548.593,0.2400000,1.716,-0.0004071
53.02,549.093,0.2400000,1.716,-0.0000665
53.07,549.593,0.2400000,1.715,-0.0000708
53.12,550.093,0.2400000,1.715,-0.0000450
53.17,550.593,0.2400000,1.715,-0.0001893
53.22,551.093,0.2400000,1.715,-0.0002337
53.27,551.593,0.2400000,1.715,-0.0006117
53.32,552.093,0.2400000,1.715,-0.0003541
53.37,552.593,0.2400000,1.715,-0.0002275
53.42,553.093,0.2400000,1.715,-0.0005190
53.47,553.593,0.2400000,1.714,-0.0003738
53.52,554.094,0.2400000,1.714,-0.0004418
53.57,554.594,0.2390000,1.714,-0.0002740
53.62,555.094,0.2390000,1.714,-0.0000993
53.67,555.594,0.2390000,1.714,-0.0003820
53.72,556.094,0.2390000,1.714,-0.0002647
53.77,556.594,0.2390000,1.714,-0.0002454
53.82,557.094,0.2390000,1.713,-0.0000450
53.87,557.594,0.2390000,1.713,-0.0003899
53.92,558.094,0.2390000,1.713,-0.0001770
53.97,558.594,0.2390000,1.713,-0.0008111
54.02,559.094,0.2390000,1.713,-0.0005072
54.07,559.595,0.2390000,1.713,-0.0000650
54.12,560.095,0.2390000,1.712,-0.0003631
54.17,560.595,0.2390000,1.712,-0.0002406
54.22,561.095,0.2390000,1.712,0.0001029
54.27,561.595,0.2390000,1.712,-0.0002222
54.32,562.095,0.2390000,1.712,-0.0006213
54.37,562.595,0.2390000,1.711,-0.0003501
54.42,563.095,0.2390000,1.711,-0.0006731
54.47,563.595,0.2390000,1.711,-0.0010464
54.52,564.095,0.2390000,1.71,-0.0007734
54.57,564.595,0.2390000,1.71,-0.0007297
54.62,565.096,0.2390000,1.709,-0.0008769
54.67,565.596,0.2390000,1.709,-0.0009569
54.72,566.096,0.2390000,1.708,-0.0009241
54.77,566.596,0.2390000,1.708,-0.0009633
54.82,567.096,0.2390000,1.707,-0.0007033
54.87,567.596,0.2380000,1.707,-0.0009251
54.92,568.096,0.2380000,1.707,-0.0008176
54.97,568.596,0.2380000,1.706,-0.0007051
55.02,569.096,0.2380000,1.706,-0.0011837
55.07,569.596,0.2380000,1.705,-0.0012468
55.12,570.096,0.2380000,1.705,-0.0007049
55.17,570.597,0.2380000,1.704,-0.0010710
55.22,571.097,0.2380000,1.704,-0.0009357
55.27,571.597,0.2380000,1.703,-0.0010205
55.32,572.097,0.2380000,1.703,-0.0009754
55.37,572.597,0.2380000,1.702,-0.0009095
55.42,573.097,0.2380000,1.702,-0.0008919
55.47,573.597,0.2380000,1.702,-0.0009837
55.52,574.097,0.2380000,1.701,-0.0005137
55.57,574.597,0.2380000,1.701,-0.0010545
55.62,575.097,0.2380000,1.7,-0.0008442
55.67,575.597,0.2370000,1.7,-0.0008693
55.72,576.098,0.2370000,1.699,-0.0005905
55.77,576.598,0.2370000,1.699,-0.0004552
55.82,577.098,0.2370000,1.699,-0.0005424
55.87,577.598,0.2370000,1.698,-0.0003411
55.92,578.098,0.2370000,1.698,-0.0006811
55.97,578.598,0.2370000,1.698,-0.0006049
56.02,579.098,0.2370000,1.697,-0.0007448
56.07,579.598,0.2370000,1.697,-0.0005582
56.12,580.098,0.2370000,1.697,-0.0008240
56.17,580.598,0.2370000,1.697,-0.0007127
56.22,581.098,0.2370000,1.696,-0.0005566
56.27,581.598,0.2370000,1.696,-0.0006102
56.32,582.099,0.2370000,1.696,-0.0003766
56.37,582.599,0.2370000,1.695,-0.0004746
56.42,583.099,0.2370000,1.695,-0.0004458
56.47,583.599,0.2370000,1.695,-0.0005156
56.52,584.099,0.2370000,1.695,-0.0003235
56.57,584.599,0.2370000,1.694,-0.0006872
56.62,585.099,0.2370000,1.694,-0.0006277
56.67,585.599,0.2370000,1.694,-0.0003188
56.72,586.099,0.2370000,1.694,-0.0005486
56.77,586.599,0.2370000,1.693,-0.0006811
56.82,587.099,0.2370000,1.693,-0.0002764
56.87,587.6,0.2370000,1.693,-0.0007090
56.92,588.1,0.2360000,1.693,-0.0004597
56.97,588.6,0.2360000,1.692,-0.0001321
57.02,589.1,0.2360000,1.692,-0.0005479
57.07,589.6,0.2360000,1.692,-0.0005455
57.11,590,0.2360000,1.692,-0.0006353