File: R/rHDPE_App/app/www/Output/TGA/Condensed_Data/Resin22_0__1.csv
0.8100000,30,19.467,100.015,0.0069921
0.8800000,30.5001,19.467,100.017,0.0006369
0.9400000,31.0002,19.467,100.019,0.0007289
1,31.5003,19.468,100.02,0.0009308
1.06,32.0004,19.468,100.021,0.0017741
1.12,32.5004,19.468,100.022,0.0040312
1.18,33.0005,19.468,100.023,0.0024661
1.23,33.5006,19.468,100.024,0.0002599
1.29,34.0007,19.469,100.025,0.0028885
1.35,34.5008,19.469,100.026,0.0002048
1.4,35.0009,19.469,100.027,0.0018818
1.46,35.501,19.469,100.027,0.0002022
1.51,36.0011,19.469,100.028,0.0026654
1.57,36.5012,19.469,100.029,0.0004003
1.62,37.0013,19.469,100.03,0.0023407
1.68,37.5013,19.47,100.03,0.0002974
1.73,38.0014,19.47,100.031,0.0024685
1.78,38.5015,19.47,100.032,0.0017218
1.84,39.0016,19.47,100.032,0.0002942
1.89,39.5017,19.47,100.033,0.0020537
1.94,40.0018,19.47,100.034,0.0012190
2,40.5019,19.47,100.034,0.0005352
2.05,41.002,19.47,100.035,0.0017963
2.11,41.5021,19.471,100.035,0.0006305
2.16,42.0021,19.471,100.036,0.0006777
2.21,42.5022,19.471,100.037,0.0016430
2.26,43.0023,19.471,100.037,0.0014964
2.32,43.5024,19.471,100.038,0.0005299
2.37,44.0025,19.471,100.038,0.0011059
2.42,44.5026,19.471,100.039,0.0016323
2.47,45.0027,19.471,100.039,0.0013424
2.53,45.5028,19.471,100.04,0.0008614
2.58,46.0029,19.472,100.041,0.0015768
2.63,46.5029,19.472,100.041,0.0016218
2.68,47.003,19.472,100.042,0.0009518
2.73,47.5031,19.472,100.042,0.0008079
2.79,48.0032,19.472,100.043,0.0015187
2.84,48.5033,19.472,100.044,0.0015162
2.89,49.0034,19.472,100.044,0.0013258
2.94,49.5035,19.472,100.045,0.0008036
2.99,50.0036,19.472,100.045,0.0011807
3.04,50.5037,19.473,100.046,0.0015090
3.1,51.0038,19.473,100.046,0.0009422
3.15,51.5038,19.473,100.047,0.0010826
3.2,52.0039,19.473,100.047,0.0008933
3.25,52.504,19.473,100.048,0.0006573
3.3,53.0041,19.473,100.049,0.0009382
3.35,53.5042,19.473,100.049,0.0011246
3.4,54.0043,19.473,100.05,0.0010300
3.46,54.5044,19.473,100.05,0.0011693
3.51,55.0045,19.474,100.051,0.0010280
3.56,55.5046,19.474,100.051,0.0010735
3.61,56.0046,19.474,100.052,0.0012595
3.66,56.5047,19.474,100.052,0.0010256
3.71,57.0048,19.474,100.053,0.0013046
3.76,57.5049,19.474,100.053,0.0013503
3.81,58.005,19.474,100.054,0.0012096
3.86,58.5051,19.474,100.055,0.0011622
3.91,59.0052,19.474,100.055,0.0009286
3.96,59.5053,19.474,100.056,0.0012069
4.01,60.0054,19.475,100.056,0.0008813
4.06,60.5054,19.475,100.057,0.0010663
4.11,61.0055,19.475,100.057,0.0014830
4.17,61.5056,19.475,100.058,0.0009730
4.22,62.0057,19.475,100.058,0.0011572
4.27,62.5058,19.475,100.059,0.0012951
4.32,63.0059,19.475,100.059,0.0009244
4.37,63.506,19.475,100.06,0.0011549
4.42,64.0061,19.475,100.06,0.0011545
4.47,64.5062,19.475,100.061,0.0012924
4.52,65.0063,19.476,100.061,0.0012912
4.57,65.5063,19.476,100.062,0.0009680
4.62,66.0064,19.476,100.062,0.0009677
4.67,66.5065,19.476,100.062,0.0010593
4.72,67.0066,19.476,100.063,0.0011967
4.77,67.5067,19.476,100.063,0.0010583
4.82,68.0068,19.476,100.064,0.0012418
4.87,68.5069,19.476,100.064,0.0007355
4.92,69.007,19.476,100.065,0.0009656
4.97,69.5071,19.476,100.065,0.0006895
5.02,70.0071,19.476,100.066,0.0006431
5.07,70.5072,19.476,100.066,0.0008730
5.12,71.0073,19.477,100.066,0.0009189
5.17,71.5074,19.477,100.067,0.0008269
5.22,72.0075,19.477,100.067,0.0006886
5.27,72.5076,19.477,100.068,0.0007805
5.32,73.0077,19.477,100.068,0.0005966
5.37,73.5078,19.477,100.068,0.0005966
5.42,74.0079,19.477,100.069,0.0007344
5.47,74.5079,19.477,100.069,0.0005961
5.52,75.008,19.477,100.069,0.0006878
5.57,75.5081,19.477,100.07,0.0009624
5.62,76.0082,19.477,100.07,0.0010542
5.67,76.5083,19.477,100.071,0.0008246
5.72,77.0084,19.477,100.071,0.0007331
5.77,77.5085,19.477,100.071,0.0007329
5.82,78.0086,19.478,100.072,0.0009618
5.87,78.5087,19.478,100.072,0.0006411
5.92,79.0088,19.478,100.072,0.0004581
5.97,79.5088,19.478,100.072,0.0005040
6.02,80.0089,19.478,100.073,0.0005955
6.07,80.509,19.478,100.073,0.0006869
6.12,81.0091,19.478,100.073,0.0002291
6.17,81.5092,19.478,100.074,0.0008244
6.22,82.0093,19.478,100.074,0.0006870
6.28,82.5094,19.478,100.074,0.0003665
6.33,83.0095,19.478,100.075,0.0005497
6.38,83.5096,19.478,100.075,0.0007325
6.43,84.0096,19.478,100.075,0.0007786
6.48,84.5097,19.478,100.076,0.0007325
6.53,85.0098,19.478,100.076,0.0008700
6.58,85.5099,19.478,100.076,0.0006868
6.63,86.01,19.478,100.076,0.0006871
6.68,86.5101,19.479,100.077,0.0005497
6.73,87.0102,19.479,100.077,0.0002290
6.78,87.5103,19.479,100.077,0.0003206
6.83,88.0104,19.479,100.077,0.0002749
6.88,88.5104,19.479,100.077,0.0002290
6.93,89.0105,19.479,100.078,0.0002748
6.98,89.5106,19.479,100.078,0.0004123
7.03,90.0107,19.479,100.078,0.0003662
7.08,90.5108,19.479,100.078,0.0002289
7.13,91.0109,19.479,100.079,0.0006410
7.18,91.511,19.479,100.079,0.0006405
7.23,92.0111,19.479,100.079,0.0005949
7.28,92.5112,19.479,100.079,0.0004578
7.33,93.0113,19.479,100.08,0.0007323
7.38,93.5113,19.479,100.08,0.0006409
7.43,94.0114,19.479,100.08,0.0005950
7.48,94.5115,19.479,100.08,0.0006863
7.53,95.0116,19.479,100.08,0.0003202
7.58,95.5117,19.479,100.081,0.0003201
7.63,96.0118,19.479,100.081,0.0005030
7.68,96.5119,19.479,100.081,-0.0001829
7.73,97.012,19.479,100.081,-0.0000914
7.78,97.5121,19.479,100.081,0.0000000
7.83,98.0121,19.479,100.081,0.0000000
7.88,98.5122,19.479,100.081,0.0000913
7.93,99.0123,19.479,100.081,0.0000913
7.98,99.5124,19.479,100.081,0.0001828
8.03,100.013,19.479,100.081,0.0000457
8.08,100.513,19.479,100.081,0.0001371
8.13,101.013,19.479,100.081,-0.0000458
8.18,101.513,19.479,100.081,0.0000000
8.23,102.013,19.479,100.081,-0.0003666
8.28,102.513,19.479,100.081,0.0000917
8.33,103.013,19.479,100.081,0.0003210
8.38,103.513,19.479,100.081,-0.0001377
8.43,104.013,19.479,100.081,-0.0001376
8.48,104.513,19.479,100.081,-0.0001376
8.53,105.013,19.479,100.081,-0.0000000
8.58,105.513,19.479,100.081,-0.0000918
8.63,106.014,19.479,100.081,-0.0000917
8.68,106.514,19.479,100.082,0.0000000
8.73,107.014,19.48,100.082,0.0003667
8.78,107.514,19.48,100.082,0.0004582
8.83,108.014,19.48,100.082,0.0002291
8.88,108.514,19.48,100.082,0.0000000
8.93,109.014,19.48,100.082,0.0001374
8.98,109.514,19.48,100.082,0.0000458
9.03,110.014,19.48,100.082,-0.0000000
9.08,110.514,19.48,100.082,-0.0001833
9.13,111.014,19.48,100.082,0.0000916
9.18,111.515,19.48,100.082,-0.0004123
9.23,112.015,19.48,100.082,-0.0002289
9.28,112.515,19.48,100.082,0.0000000
9.33,113.015,19.48,100.082,-0.0002747
9.38,113.515,19.48,100.082,-0.0002747
9.43,114.015,19.48,100.082,0.0003205
9.48,114.515,19.48,100.082,-0.0000458
9.53,115.015,19.48,100.082,0.0000000
9.58,115.515,19.48,100.082,0.0000000
9.63,116.015,19.48,100.082,0.0001833
9.68,116.515,19.48,100.082,0.0000458
9.73,117.016,19.48,100.082,0.0001374
9.78,117.516,19.48,100.082,-0.0000916
9.83,118.016,19.48,100.082,-0.0001375
9.88,118.516,19.48,100.082,0.0002750
9.93,119.016,19.48,100.082,-0.0001375
9.98,119.516,19.48,100.082,-0.0000917
10.03,120.016,19.48,100.082,-0.0003209
10.08,120.516,19.479,100.082,-0.0000917
10.13,121.016,19.479,100.081,-0.0003209
10.18,121.516,19.479,100.081,0.0000000
10.23,122.016,19.479,100.081,-0.0004127
10.28,122.517,19.479,100.081,-0.0000917
10.33,123.017,19.479,100.081,-0.0003670
10.38,123.517,19.479,100.081,-0.0001835
10.43,124.017,19.479,100.081,-0.0001376
10.48,124.517,19.479,100.081,-0.0000918
10.53,125.017,19.479,100.081,0.0000459
10.58,125.517,19.479,100.081,0.0001835
10.63,126.017,19.479,100.081,-0.0000000
10.68,126.517,19.479,100.081,0.0000000
10.73,127.017,19.479,100.081,0.0001376
10.78,127.517,19.479,100.081,0.0000918
10.83,128.018,19.479,100.081,-0.0000917
10.88,128.518,19.479,100.081,0.0000000
10.93,129.018,19.479,100.081,0.0003669
10.98,129.518,19.479,100.081,-0.0000001
11.03,130.018,19.479,100.081,0.0000917
11.08,130.518,19.479,100.081,-0.0001377
11.13,131.018,19.479,100.081,-0.0005521
11.18,131.518,19.479,100.081,0.0000000
11.23,132.018,19.479,100.081,-0.0001380
11.28,132.518,19.479,100.081,-0.0001380
11.33,133.018,19.479,100.081,-0.0001379
11.38,133.518,19.479,100.081,-0.0000459
11.43,134.019,19.479,100.081,0.0000001
11.48,134.519,19.479,100.081,-0.0002296
11.53,135.019,19.479,100.081,-0.0001378
11.58,135.519,19.479,100.081,-0.0001376
11.63,136.019,19.479,100.08,-0.0000917
11.68,136.519,19.479,100.08,-0.0000917
11.73,137.019,19.479,100.08,-0.0001375
11.78,137.519,19.479,100.08,-0.0002290
11.83,138.019,19.479,100.08,-0.0005952
11.88,138.519,19.479,100.08,-0.0002288
11.93,139.019,19.479,100.079,-0.0007317
11.98,139.52,19.479,100.079,-0.0005483
12.03,140.02,19.479,100.079,-0.0010043
12.08,140.52,19.479,100.078,-0.0008210
12.13,141.02,19.479,100.078,-0.0011382
12.18,141.52,19.479,100.078,-0.0008189
12.23,142.02,19.479,100.077,-0.0010455
12.28,142.52,19.479,100.077,-0.0009997
12.33,143.02,19.478,100.076,-0.0015435
12.38,143.52,19.478,100.076,-0.0011343
12.43,144.02,19.478,100.075,-0.0014503
12.48,144.52,19.478,100.074,-0.0015389
12.53,145.021,19.478,100.073,-0.0016269
12.58,145.521,19.478,100.072,-0.0020764
12.63,146.021,19.477,100.071,-0.0023466
12.68,146.521,19.477,100.07,-0.0024820
12.73,147.021,19.477,100.069,-0.0019413
12.78,147.521,19.477,100.068,-0.0019893
12.82,148.021,19.477,100.067,-0.0022172
12.87,148.521,19.476,100.066,-0.0024023
12.92,149.021,19.476,100.064,-0.0020890
12.97,149.521,19.476,100.063,-0.0024119
13.02,150.021,19.476,100.062,-0.0021888
13.07,150.522,19.476,100.061,-0.0022389
13.12,151.022,19.475,100.061,-0.0019676
13.17,151.522,19.475,100.06,-0.0020169
13.22,152.022,19.475,100.059,-0.0018830
13.27,152.522,19.475,100.058,-0.0013790
13.32,153.022,19.475,100.057,-0.0018399
13.37,153.522,19.475,100.056,-0.0017491
13.42,154.022,19.474,100.055,-0.0015200
13.47,154.522,19.474,100.054,-0.0017058
13.52,155.022,19.474,100.053,-0.0021192
13.57,155.522,19.474,100.052,-0.0018440
13.63,156.023,19.474,100.051,-0.0016597
13.68,156.523,19.473,100.05,-0.0016134
13.73,157.023,19.473,100.05,-0.0017062
13.78,157.523,19.473,100.049,-0.0011063
13.83,158.023,19.473,100.048,-0.0017972
13.88,158.523,19.473,100.047,-0.0013829
13.93,159.023,19.473,100.046,-0.0016587
13.98,159.523,19.472,100.045,-0.0013825
14.03,160.023,19.472,100.045,-0.0018424
14.08,160.523,19.472,100.044,-0.0017038
14.13,161.023,19.472,100.043,-0.0009669
14.18,161.523,19.472,100.042,-0.0018872
14.23,162.024,19.472,100.041,-0.0023452
14.28,162.524,19.472,100.041,-0.0016092
14.33,163.024,19.471,100.04,-0.0015630
14.38,163.524,19.471,100.039,-0.0017000
14.43,164.024,19.471,100.038,-0.0022042
14.48,164.524,19.471,100.037,-0.0018357
14.53,165.024,19.471,100.036,-0.0022484
14.58,165.524,19.47,100.035,-0.0020184
14.63,166.024,19.47,100.034,-0.0018344
14.68,166.524,19.47,100.033,-0.0019252
14.73,167.024,19.47,100.032,-0.0024294
14.78,167.525,19.47,100.031,-0.0017423
14.83,168.025,19.47,100.031,-0.0016952
14.88,168.525,19.469,100.03,-0.0017877
14.93,169.025,19.469,100.029,-0.0022002
14.98,169.525,19.469,100.028,-0.0017874
15.03,170.025,19.469,100.027,-0.0020169
15.08,170.525,19.469,100.025,-0.0022915
15.13,171.025,19.468,100.024,-0.0018792
15.18,171.525,19.468,100.023,-0.0021550
15.23,172.025,19.468,100.022,-0.0020170
15.28,172.525,19.468,100.021,-0.0019716
15.33,173.026,19.468,100.02,-0.0022452
15.38,173.526,19.467,100.019,-0.0024290
15.43,174.026,19.467,100.018,-0.0022915
15.48,174.526,19.467,100.017,-0.0019248
15.53,175.026,19.467,100.016,-0.0020614
15.58,175.526,19.466,100.014,-0.0025202
15.63,176.026,19.466,100.013,-0.0024283
15.68,176.526,19.466,100.012,-0.0024279
15.73,177.026,19.466,100.011,-0.0025206
15.78,177.526,19.465,100.009,-0.0024741
15.83,178.026,19.465,100.008,-0.0021085
15.88,178.527,19.465,100.007,-0.0025671
15.93,179.027,19.465,100.006,-0.0027502
15.98,179.527,19.465,100.005,-0.0029797
16.03,180.027,19.464,100.003,-0.0024290
16.08,180.527,19.464,100.002,-0.0027498
16.13,181.027,19.464,100.001,-0.0028420
16.18,181.527,19.464,99.999,-0.0024290
16.23,182.027,19.463,99.998,-0.0027498
16.28,182.527,19.463,99.997,-0.0026123
16.33,183.027,19.463,99.995,-0.0025218
16.38,183.527,19.462,99.994,-0.0026135
16.43,184.028,19.462,99.993,-0.0025225
16.48,184.528,19.462,99.991,-0.0028889
16.53,185.028,19.462,99.99,-0.0023378
16.58,185.528,19.461,99.989,-0.0027047
16.63,186.028,19.461,99.987,-0.0027039
16.68,186.528,19.461,99.986,-0.0026581
16.73,187.028,19.461,99.985,-0.0025660
16.78,187.528,19.46,99.983,-0.0028409
16.83,188.028,19.46,99.982,-0.0031150
16.88,188.528,19.46,99.98,-0.0028864
16.93,189.028,19.459,99.979,-0.0027948
16.98,189.528,19.459,99.977,-0.0027022
17.03,190.029,19.459,99.976,-0.0028852
17.08,190.529,19.459,99.974,-0.0027485
17.13,191.029,19.458,99.973,-0.0028386
17.18,191.529,19.458,99.971,-0.0029317
17.23,192.029,19.458,99.97,-0.0030225
17.28,192.529,19.457,99.968,-0.0030692
17.33,193.029,19.457,99.967,-0.0037102
17.38,193.529,19.457,99.965,-0.0030700
17.43,194.029,19.457,99.964,-0.0032991
17.48,194.529,19.456,99.962,-0.0031155
17.53,195.029,19.456,99.961,-0.0033003
17.58,195.53,19.456,99.959,-0.0032539
17.63,196.03,19.455,99.957,-0.0032509
17.68,196.53,19.455,99.956,-0.0030214
17.73,197.03,19.455,99.954,-0.0032524
17.78,197.53,19.454,99.953,-0.0032524
17.83,198.03,19.454,99.951,-0.0033425
17.88,198.53,19.454,99.949,-0.0028852
17.93,199.03,19.453,99.948,-0.0033892
17.98,199.53,19.453,99.946,-0.0030678
18.03,200.03,19.453,99.944,-0.0032057
18.08,200.53,19.452,99.943,-0.0031150
18.13,201.031,19.452,99.941,-0.0036192
18.18,201.531,19.452,99.939,-0.0030697
18.23,202.031,19.451,99.938,-0.0032530
18.28,202.531,19.451,99.936,-0.0032988
18.33,203.031,19.451,99.934,-0.0033908
18.38,203.531,19.45,99.933,-0.0034814
18.43,204.031,19.45,99.931,-0.0032982
18.48,204.531,19.45,99.929,-0.0030700
18.53,205.031,19.45,99.928,-0.0038493
18.58,205.531,19.449,99.926,-0.0032997
18.63,206.031,19.449,99.924,-0.0037112
18.68,206.532,19.449,99.922,-0.0033446
18.73,207.032,19.448,99.921,-0.0035757
18.78,207.532,19.448,99.919,-0.0032554
18.83,208.032,19.448,99.917,-0.0037139
18.88,208.532,19.447,99.915,-0.0033914
18.93,209.032,19.447,99.914,-0.0029344
18.98,209.532,19.446,99.912,-0.0037149
19.03,210.032,19.446,99.91,-0.0036697
19.08,210.532,19.446,99.908,-0.0033007
19.13,211.032,19.445,99.907,-0.0034378
19.18,211.532,19.445,99.905,-0.0035754
19.23,212.033,19.445,99.903,-0.0033914
19.28,212.533,19.444,99.901,-0.0031634
19.33,213.033,19.444,99.899,-0.0035295
19.38,213.533,19.444,99.897,-0.0034378
19.43,214.033,19.443,99.896,-0.0034372
19.48,214.533,19.443,99.894,-0.0032081
19.54,215.033,19.443,99.892,-0.0037570
19.59,215.533,19.442,99.89,-0.0031150
19.64,216.033,19.442,99.888,-0.0034350
19.69,216.533,19.442,99.887,-0.0036640
19.74,217.033,19.441,99.885,-0.0036172
19.79,217.533,19.441,99.883,-0.0031602
19.84,218.034,19.44,99.881,-0.0037105
19.89,218.534,19.44,99.879,-0.0039388
19.94,219.034,19.44,99.877,-0.0040763
19.99,219.534,19.439,99.876,-0.0038493
20.04,220.034,19.439,99.874,-0.0035747
20.09,220.534,19.439,99.872,-0.0039857
20.14,221.034,19.438,99.87,-0.0036664
20.19,221.534,19.438,99.868,-0.0035283
20.24,222.034,19.438,99.866,-0.0036687
20.29,222.534,19.437,99.864,-0.0035737
20.34,223.034,19.437,99.863,-0.0033468
20.39,223.535,19.437,99.861,-0.0039879
20.44,224.035,19.436,99.859,-0.0039879
20.49,224.535,19.436,99.857,-0.0038039
20.54,225.035,19.435,99.855,-0.0035747
20.59,225.535,19.435,99.853,-0.0037574
20.64,226.035,19.435,99.851,-0.0035727
20.69,226.535,19.434,99.85,-0.0036640
20.74,227.035,19.434,99.848,-0.0035734
20.79,227.535,19.434,99.846,-0.0035724
20.84,228.035,19.433,99.844,-0.0036623
20.89,228.535,19.433,99.842,-0.0039835
20.94,229.036,19.433,99.84,-0.0037539
20.99,229.536,19.432,99.838,-0.0038458
21.04,230.036,19.432,99.837,-0.0037997
21.09,230.536,19.431,99.835,-0.0043052
21.14,231.036,19.431,99.833,-0.0040304
21.19,231.536,19.431,99.831,-0.0037088
21.24,232.036,19.43,99.829,-0.0039377
21.29,232.536,19.43,99.827,-0.0042136
21.34,233.036,19.43,99.825,-0.0041667
21.39,233.536,19.429,99.823,-0.0035714
21.44,234.036,19.429,99.821,-0.0039388
21.49,234.537,19.428,99.819,-0.0038455
21.54,235.037,19.428,99.817,-0.0037539
21.59,235.537,19.428,99.815,-0.0039824
21.64,236.037,19.427,99.813,-0.0038927
21.69,236.537,19.427,99.812,-0.0038462
21.74,237.037,19.427,99.81,-0.0041655
21.79,237.537,19.426,99.808,-0.0038905
21.84,238.037,19.426,99.806,-0.0034799
21.89,238.537,19.425,99.804,-0.0038004
21.94,239.037,19.425,99.802,-0.0039359
21.99,239.537,19.425,99.8,-0.0035705
22.04,240.038,19.424,99.798,-0.0032967
22.09,240.538,19.424,99.796,-0.0036643
22.14,241.038,19.424,99.794,-0.0041693
22.19,241.538,19.423,99.792,-0.0037570
22.24,242.038,19.423,99.79,-0.0035266
22.29,242.538,19.422,99.788,-0.0042598
22.34,243.038,19.422,99.786,-0.0043080
22.39,243.538,19.422,99.784,-0.0037139
22.44,244.038,19.421,99.782,-0.0039872
22.49,244.538,19.421,99.78,-0.0039872
22.54,245.038,19.421,99.779,-0.0036664
22.59,245.538,19.42,99.777,-0.0039420
22.64,246.039,19.42,99.775,-0.0045405
22.69,246.539,19.419,99.773,-0.0038955
22.74,247.039,19.419,99.771,-0.0038032
22.79,247.539,19.419,99.769,-0.0041686
22.84,248.039,19.418,99.767,-0.0042594
22.89,248.539,19.418,99.765,-0.0041693
22.94,249.039,19.417,99.763,-0.0039377
22.99,249.539,19.417,99.761,-0.0036657
23.04,250.039,19.417,99.759,-0.0038021
23.09,250.539,19.416,99.757,-0.0038944
23.14,251.039,19.416,99.755,-0.0043976
23.19,251.54,19.416,99.753,-0.0041247
23.24,252.04,19.415,99.751,-0.0037570
23.29,252.54,19.415,99.749,-0.0036664
23.34,253.04,19.414,99.747,-0.0037115
23.39,253.54,19.414,99.745,-0.0037563
23.44,254.04,19.414,99.743,-0.0039403
23.49,254.54,19.413,99.741,-0.0041705
23.54,255.04,19.413,99.739,-0.0038028
23.59,255.54,19.412,99.737,-0.0038039
23.64,256.04,19.412,99.735,-0.0038941
23.69,256.54,19.412,99.733,-0.0043072
23.74,257.041,19.411,99.731,-0.0036650
23.79,257.541,19.411,99.729,-0.0040316
23.84,258.041,19.411,99.727,-0.0039392
23.89,258.541,19.41,99.725,-0.0043523
23.94,259.041,19.41,99.723,-0.0041705
23.99,259.541,19.409,99.721,-0.0040773
24.04,260.041,19.409,99.719,-0.0044454
24.09,260.541,19.409,99.717,-0.0042605
24.14,261.041,19.408,99.715,-0.0042163
24.19,261.541,19.408,99.713,-0.0046764
24.24,262.041,19.407,99.711,-0.0043096
24.29,262.542,19.407,99.709,-0.0041720
24.34,263.042,19.407,99.707,-0.0039879
24.39,263.542,19.406,99.705,-0.0042645
24.44,264.042,19.406,99.703,-0.0040796
24.49,264.542,19.405,99.701,-0.0044012
24.54,265.042,19.405,99.698,-0.0043080
24.59,265.542,19.405,99.696,-0.0038476
24.64,266.042,19.404,99.694,-0.0038025
24.69,266.542,19.404,99.692,-0.0043972
24.74,267.042,19.403,99.69,-0.0043057
24.79,267.542,19.403,99.688,-0.0042140
24.84,268.043,19.403,99.686,-0.0041231
24.89,268.543,19.402,99.684,-0.0046686
24.94,269.043,19.402,99.682,-0.0039835
24.99,269.543,19.401,99.68,-0.0042125
25.04,270.043,19.401,99.678,-0.0043980
25.09,270.543,19.4,99.676,-0.0043980
25.14,271.043,19.4,99.673,-0.0042140
25.19,271.543,19.4,99.671,-0.0047187
25.24,272.043,19.399,99.669,-0.0044455
25.29,272.543,19.399,99.667,-0.0043064
25.34,273.043,19.398,99.665,-0.0044430
25.39,273.543,19.398,99.663,-0.0041682
25.44,274.044,19.398,99.661,-0.0039850
25.49,274.544,19.397,99.659,-0.0042147
25.54,275.044,19.397,99.656,-0.0048561
25.59,275.544,19.396,99.654,-0.0043989
25.64,276.044,19.396,99.652,-0.0043056
25.69,276.544,19.396,99.65,-0.0046271
25.74,277.044,19.395,99.648,-0.0045355
25.79,277.544,19.395,99.646,-0.0042598
25.84,278.044,19.394,99.644,-0.0043056
25.89,278.544,19.394,99.642,-0.0047619
25.94,279.044,19.393,99.639,-0.0045804
25.99,279.545,19.393,99.637,-0.0043981
26.04,280.045,19.393,99.635,-0.0044414
26.09,280.545,19.392,99.633,-0.0046263
26.14,281.045,19.392,99.631,-0.0044430
26.19,281.545,19.391,99.628,-0.0043522
26.24,282.045,19.391,99.626,-0.0045354
26.29,282.545,19.39,99.624,-0.0045788
26.34,283.045,19.39,99.622,-0.0040315
26.39,283.545,19.39,99.62,-0.0046262
26.44,284.045,19.389,99.618,-0.0042560
26.49,284.545,19.389,99.615,-0.0046262
26.54,285.046,19.388,99.613,-0.0043980
26.59,285.546,19.388,99.611,-0.0044872
26.64,286.046,19.387,99.609,-0.0044430
26.69,286.546,19.387,99.607,-0.0042582
26.74,287.046,19.387,99.605,-0.0038919
26.79,287.546,19.386,99.602,-0.0041682
26.84,288.046,19.386,99.6,-0.0041209
26.89,288.546,19.385,99.598,-0.0042582
26.94,289.046,19.385,99.596,-0.0043956
26.99,289.546,19.384,99.593,-0.0041682
27.04,290.046,19.384,99.591,-0.0042125
27.09,290.547,19.384,99.589,-0.0041667
27.14,291.047,19.383,99.587,-0.0043498
27.19,291.547,19.383,99.585,-0.0042125
27.24,292.047,19.382,99.582,-0.0043063
27.29,292.547,19.382,99.58,-0.0044913
27.34,293.047,19.381,99.578,-0.0043530
27.39,293.547,19.381,99.576,-0.0043522
27.44,294.047,19.381,99.574,-0.0043996
27.49,294.547,19.38,99.571,-0.0042606
27.54,295.047,19.38,99.569,-0.0043498
27.59,295.547,19.379,99.567,-0.0042148
27.64,296.048,19.379,99.565,-0.0043956
27.69,296.548,19.378,99.562,-0.0042559
27.74,297.048,19.378,99.56,-0.0043932
27.79,297.548,19.378,99.558,-0.0044389
27.84,298.048,19.377,99.556,-0.0042543
27.89,298.548,19.377,99.554,-0.0042094
27.94,299.048,19.376,99.552,-0.0048050
27.99,299.548,19.376,99.549,-0.0047144
28.04,300.048,19.375,99.547,-0.0044847
28.09,300.548,19.375,99.545,-0.0047144
28.14,301.048,19.375,99.543,-0.0048508
28.19,301.548,19.374,99.54,-0.0048077
28.24,302.049,19.374,99.538,-0.0044389
28.29,302.549,19.373,99.536,-0.0046229
28.34,303.049,19.373,99.534,-0.0046245
28.39,303.549,19.372,99.531,-0.0044880
28.44,304.049,19.372,99.529,-0.0047161
28.49,304.549,19.371,99.527,-0.0043498
28.54,305.049,19.371,99.524,-0.0045746
28.59,305.549,19.371,99.522,-0.0044814
28.64,306.049,19.37,99.52,-0.0043916
28.69,306.549,19.37,99.518,-0.0044373
28.74,307.049,19.369,99.515,-0.0044398
28.79,307.55,19.369,99.513,-0.0044405
28.84,308.05,19.368,99.511,-0.0045304
28.89,308.55,19.368,99.508,-0.0047161
28.94,309.05,19.367,99.506,-0.0043498
28.99,309.55,19.367,99.504,-0.0048966
29.04,310.05,19.367,99.501,-0.0048993
29.09,310.55,19.366,99.499,-0.0047196
29.14,311.05,19.366,99.496,-0.0046271
29.19,311.55,19.365,99.494,-0.0044455
29.24,312.05,19.365,99.492,-0.0046287
29.29,312.55,19.364,99.489,-0.0049514
29.34,313.051,19.364,99.487,-0.0045371
29.39,313.551,19.363,99.485,-0.0050852
29.44,314.051,19.363,99.482,-0.0050394
29.49,314.551,19.362,99.48,-0.0048993
29.54,315.051,19.362,99.478,-0.0049908
29.59,315.551,19.361,99.475,-0.0051264
29.64,316.051,19.361,99.473,-0.0050394
29.69,316.551,19.361,99.47,-0.0048077
29.74,317.051,19.36,99.468,-0.0045788
29.79,317.551,19.36,99.466,-0.0045813
29.84,318.051,19.359,99.463,-0.0049020
29.89,318.552,19.359,99.461,-0.0048561
29.94,319.052,19.358,99.458,-0.0046271
29.99,319.552,19.358,99.456,-0.0049020
30.04,320.052,19.357,99.453,-0.0048553
30.09,320.552,19.357,99.451,-0.0048095
30.14,321.052,19.356,99.448,-0.0050366
30.19,321.552,19.356,99.446,-0.0049451
30.24,322.052,19.355,99.443,-0.0052656
30.29,322.552,19.355,99.441,-0.0053571
30.34,323.052,19.354,99.438,-0.0051740
30.39,323.552,19.354,99.436,-0.0050816
30.44,324.053,19.353,99.433,-0.0050852
30.49,324.553,19.353,99.431,-0.0049451
30.54,325.053,19.352,99.428,-0.0054945
30.59,325.553,19.352,99.426,-0.0051740
30.64,326.053,19.351,99.423,-0.0050394
30.69,326.553,19.351,99.421,-0.0052676
30.74,327.053,19.35,99.418,-0.0050384
30.79,327.553,19.35,99.415,-0.0050348
30.84,328.053,19.349,99.413,-0.0050394
30.89,328.553,19.349,99.41,-0.0052656
30.94,329.053,19.348,99.408,-0.0049433
30.99,329.553,19.348,99.405,-0.0049872
31.04,330.054,19.347,99.402,-0.0053095
31.09,330.554,19.347,99.4,-0.0052160
31.14,331.054,19.346,99.397,-0.0051282
31.19,331.554,19.346,99.395,-0.0052685
31.24,332.054,19.345,99.392,-0.0053114
31.29,332.554,19.345,99.389,-0.0053181
31.34,333.054,19.344,99.387,-0.0054995
31.39,333.554,19.344,99.384,-0.0054537
31.44,334.054,19.343,99.381,-0.0053143
31.49,334.554,19.343,99.379,-0.0050852
31.54,335.054,19.342,99.376,-0.0052236
31.59,335.555,19.342,99.373,-0.0054059
31.64,336.055,19.341,99.371,-0.0053094
31.69,336.555,19.341,99.368,-0.0055403
31.74,337.055,19.34,99.365,-0.0056287
31.79,337.555,19.34,99.363,-0.0054915
31.84,338.055,19.339,99.36,-0.0055830
31.89,338.555,19.339,99.357,-0.0055830
31.94,339.055,19.338,99.354,-0.0054010
31.99,339.555,19.337,99.352,-0.0054437
32.04,340.055,19.337,99.349,-0.0053541
32.09,340.555,19.336,99.346,-0.0055861
32.14,341.056,19.336,99.343,-0.0055861
32.19,341.556,19.335,99.341,-0.0054487
32.24,342.056,19.335,99.338,-0.0056298
32.29,342.556,19.334,99.335,-0.0052675
32.34,343.056,19.334,99.332,-0.0051740
32.39,343.556,19.333,99.33,-0.0052656
32.44,344.056,19.333,99.327,-0.0057724
32.49,344.556,19.332,99.324,-0.0058118
32.54,345.056,19.331,99.321,-0.0057203
32.59,345.556,19.331,99.318,-0.0059066
32.64,346.056,19.33,99.315,-0.0060897
32.69,346.557,19.33,99.312,-0.0058129
32.74,347.057,19.329,99.309,-0.0058608
32.79,347.557,19.329,99.307,-0.0059959
32.84,348.057,19.328,99.304,-0.0059982
32.89,348.557,19.328,99.301,-0.0061355
32.94,349.057,19.327,99.298,-0.0060897
32.99,349.557,19.326,99.295,-0.0058608
33.04,350.057,19.326,99.292,-0.0058150
33.09,350.557,19.325,99.289,-0.0056777
33.14,351.057,19.325,99.286,-0.0056777
33.19,351.557,19.324,99.283,-0.0057234
33.24,352.058,19.324,99.28,-0.0059066
33.29,352.558,19.323,99.277,-0.0059066
33.34,353.058,19.322,99.274,-0.0060440
33.39,353.558,19.322,99.271,-0.0058608
33.44,354.058,19.321,99.268,-0.0057692
33.49,354.558,19.321,99.265,-0.0059066
33.54,355.058,19.32,99.262,-0.0058608
33.59,355.558,19.319,99.259,-0.0056777
33.64,356.058,19.319,99.257,-0.0059524
33.69,356.558,19.318,99.254,-0.0057692
33.74,357.058,19.318,99.251,-0.0058608
33.79,357.558,19.317,99.248,-0.0057692
33.84,358.059,19.317,99.245,-0.0060875
33.89,358.559,19.316,99.242,-0.0062694
33.94,359.059,19.315,99.239,-0.0058118
33.99,359.559,19.315,99.236,-0.0060897
34.04,360.059,19.314,99.233,-0.0059982
34.09,360.559,19.314,99.23,-0.0064103
34.14,361.059,19.313,99.227,-0.0064103
34.19,361.559,19.312,99.224,-0.0061355
34.24,362.059,19.312,99.221,-0.0059982
34.29,362.559,19.311,99.218,-0.0062271
34.34,363.059,19.311,99.215,-0.0058576
34.39,363.56,19.31,99.212,-0.0059927
34.44,364.06,19.31,99.209,-0.0060842
34.49,364.56,19.309,99.206,-0.0063129
34.54,365.06,19.308,99.203,-0.0065849
34.59,365.56,19.308,99.2,-0.0059447
34.65,366.06,19.307,99.196,-0.0061700
34.7,366.56,19.307,99.193,-0.0060786
34.74,367.06,19.306,99.19,-0.0058500
34.79,367.56,19.305,99.187,-0.0058958
34.84,368.06,19.305,99.184,-0.0065356
34.89,368.56,19.304,99.181,-0.0062648
34.94,369.061,19.304,99.178,-0.0062672
34.99,369.561,19.303,99.175,-0.0061779
35.04,370.061,19.302,99.172,-0.0062729
35.09,370.561,19.302,99.168,-0.0065500
35.14,371.061,19.301,99.165,-0.0066428
35.19,371.561,19.301,99.162,-0.0066428
35.24,372.061,19.3,99.159,-0.0068681
35.29,372.561,19.299,99.155,-0.0067345
35.34,373.061,19.299,99.152,-0.0067370
35.39,373.561,19.298,99.148,-0.0069177
35.44,374.061,19.297,99.145,-0.0070119
35.5,374.562,19.296,99.141,-0.0071468
35.55,375.062,19.296,99.138,-0.0070552
35.6,375.562,19.295,99.134,-0.0073260
35.65,376.062,19.294,99.13,-0.0069597
35.7,376.562,19.294,99.127,-0.0075064
35.75,377.062,19.293,99.123,-0.0073260
35.8,377.562,19.292,99.119,-0.0076465
35.85,378.062,19.291,99.115,-0.0076923
35.9,378.562,19.291,99.111,-0.0079169
35.95,379.062,19.29,99.107,-0.0080099
36,379.562,19.289,99.103,-0.0081929
36.05,380.063,19.288,99.099,-0.0085102
36.1,380.563,19.287,99.095,-0.0088289
36.15,381.063,19.287,99.091,-0.0088273
36.19,381.563,19.286,99.086,-0.0088208
36.24,382.063,19.285,99.082,-0.0090037
36.29,382.563,19.284,99.077,-0.0090951
36.34,383.063,19.283,99.073,-0.0091931
36.39,383.563,19.282,99.068,-0.0093727
36.44,384.063,19.281,99.063,-0.0093304
36.49,384.563,19.28,99.058,-0.0096066
36.54,385.063,19.279,99.054,-0.0096083
36.59,385.563,19.278,99.049,-0.0100183
36.64,386.064,19.277,99.044,-0.0100640
36.69,386.564,19.276,99.038,-0.0104358
36.74,387.064,19.275,99.033,-0.0110308
36.79,387.564,19.274,99.028,-0.0112534
36.84,388.064,19.273,99.022,-0.0113449
36.89,388.564,19.272,99.017,-0.0115322
36.94,389.064,19.271,99.011,-0.0114469
36.99,389.564,19.27,99.005,-0.0119418
37.04,390.064,19.269,98.999,-0.0121337
37.09,390.564,19.268,98.993,-0.0124084
37.14,391.064,19.266,98.987,-0.0122207
37.19,391.565,19.265,98.98,-0.0127289
37.24,392.065,19.264,98.974,-0.0130037
37.29,392.565,19.263,98.967,-0.0129965
37.34,393.065,19.261,98.961,-0.0135939
37.39,393.565,19.26,98.954,-0.0138736
37.44,394.065,19.259,98.947,-0.0141026
37.49,394.565,19.257,98.94,-0.0146009
37.54,395.065,19.256,98.932,-0.0146466
37.59,395.565,19.254,98.925,-0.0150558
37.64,396.065,19.253,98.918,-0.0151474
37.69,396.565,19.251,98.91,-0.0154677
37.74,397.066,19.25,98.902,-0.0158425
37.79,397.566,19.248,98.894,-0.0159799
37.84,398.066,19.247,98.886,-0.0164775
37.89,398.566,19.245,98.878,-0.0165203
37.94,399.066,19.244,98.87,-0.0170788
37.99,399.566,19.242,98.861,-0.0171640
38.04,400.066,19.24,98.852,-0.0178016
38.09,400.566,19.238,98.843,-0.0183965
38.14,401.066,19.237,98.834,-0.0185830
38.19,401.566,19.235,98.824,-0.0193223
38.24,402.066,19.233,98.814,-0.0199176
38.29,402.567,19.231,98.804,-0.0205053
38.34,403.067,19.229,98.794,-0.0210088
38.39,403.567,19.227,98.783,-0.0214168
38.44,404.067,19.225,98.772,-0.0220992
38.49,404.567,19.223,98.761,-0.0220117
38.54,405.067,19.22,98.75,-0.0227896
38.59,405.567,19.218,98.739,-0.0229269
38.64,406.067,19.216,98.727,-0.0235719
38.69,406.567,19.214,98.715,-0.0235676
38.74,407.067,19.211,98.703,-0.0240710
38.79,407.567,19.209,98.691,-0.0243958
38.84,408.068,19.206,98.679,-0.0248535
38.89,408.568,19.204,98.666,-0.0254579
38.94,409.068,19.202,98.653,-0.0261447
38.99,409.568,19.199,98.64,-0.0270914
39.04,410.068,19.196,98.627,-0.0276099
39.09,410.568,19.194,98.613,-0.0286172
39.14,411.068,19.191,98.598,-0.0297619
39.19,411.568,19.188,98.583,-0.0303571
39.24,412.068,19.185,98.568,-0.0310440
39.29,412.568,19.182,98.552,-0.0317766
39.34,413.068,19.179,98.536,-0.0330404
39.39,413.568,19.175,98.519,-0.0336811
39.44,414.069,19.172,98.502,-0.0344796
39.49,414.569,19.169,98.485,-0.0351005
39.54,415.069,19.165,98.467,-0.0363803
39.59,415.569,19.162,98.448,-0.0373857
39.64,416.069,19.158,98.429,-0.0384509
39.69,416.569,19.154,98.41,-0.0394640
39.74,417.069,19.15,98.39,-0.0405158
39.79,417.569,19.146,98.369,-0.0417276
39.84,418.069,19.142,98.348,-0.0432454
39.89,418.569,19.138,98.326,-0.0452839
39.94,419.069,19.133,98.303,-0.0470696
39.99,419.57,19.129,98.279,-0.0491758
40.04,420.07,19.124,98.254,-0.0511447
40.09,420.57,19.119,98.227,-0.0534799
40.14,421.07,19.113,98.2,-0.0569139
40.19,421.57,19.107,98.17,-0.0584707
40.25,422.07,19.101,98.137,-0.0634960
40.3,422.57,19.094,98.103,-0.0661410
40.35,423.07,19.087,98.067,-0.0727106
40.4,423.57,19.08,98.029,-0.0771520
40.45,424.07,19.072,97.988,-0.0781616
40.5,424.57,19.064,97.947,-0.0851794
40.55,425.071,19.055,97.902,-0.0886412
40.6,425.571,19.046,97.856,-0.0988385
40.65,426.071,19.037,97.807,-0.1016470
40.69,426.571,19.027,97.758,-0.1032550
40.74,427.071,19.017,97.706,-0.1061690
40.79,427.571,19.007,97.654,-0.1117110
40.84,428.071,18.996,97.598,-0.1070970
40.89,428.571,18.985,97.54,-0.1186810
40.94,429.071,18.973,97.478,-0.1269690
40.99,429.571,18.96,97.413,-0.1301740
41.04,430.071,18.947,97.346,-0.1299710
41.1,430.572,18.933,97.276,-0.1340200
41.15,431.072,18.92,97.206,-0.1379580
41.2,431.572,18.906,97.135,-0.1435960
41.25,432.072,18.891,97.06,-0.1517860
41.3,432.572,18.876,96.982,-0.1547060
41.35,433.072,18.861,96.904,-0.1636460
41.4,433.572,18.845,96.819,-0.1774340
41.45,434.072,18.827,96.728,-0.1936810
41.5,434.572,18.808,96.631,-0.2019870
41.55,435.072,18.787,96.524,-0.2265240
41.6,435.572,18.766,96.417,-0.2192130
41.64,436.073,18.744,96.305,-0.2483980
41.69,436.573,18.72,96.177,-0.2589740
41.75,437.073,18.693,96.04,-0.2754260
41.8,437.573,18.665,95.898,-0.2900770
41.85,438.073,18.636,95.748,-0.3075750
41.9,438.573,18.605,95.588,-0.3298530
41.95,439.073,18.572,95.42,-0.3305410
42,439.573,18.538,95.244,-0.3538540
42.05,440.073,18.502,95.058,-0.3731720
42.1,440.573,18.463,94.86,-0.4062160
42.14,441.073,18.425,94.662,-0.4244700
42.19,441.573,18.383,94.446,-0.4395800
42.24,442.074,18.334,94.195,-0.5549680
42.29,442.574,18.28,93.92,-0.5658550
42.34,443.074,18.227,93.648,-0.5625000
42.39,443.574,18.174,93.375,-0.5450240
42.44,444.074,18.121,93.101,-0.5533880
42.49,444.574,18.066,92.82,-0.5536600
42.55,445.074,18.009,92.524,-0.5834410
42.6,445.574,17.951,92.229,-0.5989940
42.65,446.074,17.892,91.925,-0.5968560
42.7,446.574,17.832,91.617,-0.6094180
42.75,447.074,17.772,91.307,-0.5904760
42.8,447.575,17.711,90.994,-0.6085160
42.84,448.075,17.652,90.691,-0.6205660
42.89,448.575,17.591,90.378,-0.6437740
42.94,449.075,17.528,90.054,-0.6783700
42.99,449.575,17.461,89.712,-0.7017340
43.04,450.075,17.394,89.367,-0.7067980
43.09,450.575,17.325,89.01,-0.7267570
43.14,451.075,17.25,88.626,-0.7914710
43.19,451.575,17.171,88.221,-0.8339810
43.24,452.075,17.087,87.789,-0.8711810
43.29,452.575,17.002,87.351,-0.8868780
43.35,453.076,16.909,86.874,-0.9260130
43.4,453.576,16.817,86.402,-0.9422330
43.45,454.076,16.721,85.908,-1.01217
43.5,454.576,16.617,85.375,-1.07305
43.55,455.076,16.508,84.814,-1.12833
43.6,455.576,16.396,84.238,-1.16165
43.65,456.076,16.281,83.651,-1.24075
43.7,456.576,16.161,83.033,-1.27424
43.75,457.076,16.033,82.376,-1.35173
43.8,457.576,15.9,81.689,-1.44271
43.85,458.076,15.76,80.97,-1.47574
43.9,458.577,15.616,80.234,-1.52123
43.95,459.077,15.468,79.473,-1.48039
44,459.577,15.318,78.698,-1.57477
44.05,460.077,15.158,77.881,-1.70047
44.1,460.577,14.99,77.017,-1.75714
44.15,461.077,14.818,76.133,-1.77633
44.2,461.577,14.647,75.253,-1.77004
44.25,462.077,14.463,74.306,-2.0126
44.3,462.577,14.271,73.323,-1.8446
44.35,463.077,14.086,72.373,-2.01843
44.4,463.577,13.886,71.344,-2.09761
44.45,464.078,13.677,70.27,-2.20568
44.5,464.578,13.456,69.136,-2.33016
44.55,465.078,13.225,67.947,-2.25871
44.6,465.578,13.008,66.833,-2.26936
44.65,466.078,12.78,65.662,-2.38422
44.7,466.578,12.548,64.469,-2.47617
44.75,467.078,12.302,63.207,-2.60427
44.8,467.578,12.055,61.938,-2.59485
44.85,468.078,11.795,60.599,-2.666
44.9,468.578,11.528,59.229,-2.69881
44.95,469.078,11.26,57.853,-2.89101
45,469.578,10.979,56.406,-2.96991
45.05,470.079,10.705,54.999,-2.85615
45.1,470.579,10.417,53.521,-3.02824
45.15,471.079,10.125,52.02,-3.01846
45.2,471.579,9.829,50.498,-3.01025
45.25,472.079,9.534,48.983,-3.15224
45.3,472.579,9.226,47.404,-3.22309
45.35,473.079,8.918,45.817,-3.14741
45.4,473.579,8.609,44.229,-3.106
45.45,474.079,8.288,42.581,-3.21264
45.5,474.579,7.972,40.958,-3.23841
45.55,475.079,7.65,39.305,-3.27848
45.6,475.58,7.331,37.663,-3.29614
45.65,476.08,7.006,35.993,-3.33424
45.7,476.58,6.683,34.336,-3.36507
45.75,477.08,6.354,32.647,-3.34464
45.79,477.58,6.04,31.034,-3.3645
45.85,478.08,5.706,29.314,-3.28028
45.9,478.58,5.386,27.672,-3.27403
45.95,479.08,5.069,26.042,-3.26988
46,479.58,4.754,24.425,-3.17018
46.05,480.08,4.446,22.842,-3.15962
46.09,480.58,4.153,21.338,-3.03735
46.14,481.081,3.857,19.816,-2.99313
46.19,481.581,3.569,18.334,-2.9305
46.24,482.081,3.289,16.899,-2.79713
46.29,482.581,3.02,15.514,-2.68354
46.34,483.081,2.761,14.183,-2.55677
46.39,483.581,2.521,12.954,-2.45483
46.44,484.081,2.287,11.749,-2.30646
46.49,484.581,2.067,10.618,-2.17598
46.54,485.081,1.861,9.562,-2.02118
46.59,485.581,1.672,8.59,-1.85323
46.64,486.081,1.504,7.727,-1.72111
46.69,486.582,1.345,6.911,-1.55189
46.74,487.082,1.202,6.177,-1.39735
46.79,487.582,1.078,5.539,-1.22864
46.84,488.082,0.9640000,4.955,-1.07189
46.89,488.582,0.8640000,4.438,-0.9497880
46.94,489.082,0.7790000,4.001,-0.8161040
46.99,489.582,0.7030000,3.609,-0.7302310
47.04,490.082,0.6370000,3.273,-0.5973640
47.09,490.582,0.5840000,3.001,-0.5150930
47.14,491.082,0.5380000,2.765,-0.4349090
47.19,491.582,0.5010000,2.572,-0.3518780
47.24,492.083,0.4700000,2.417,-0.2820700
47.29,492.583,0.4460000,2.293,-0.2230250
47.34,493.083,0.4270000,2.195,-0.1740630
47.39,493.583,0.4130000,2.121,-0.1290610
47.44,494.083,0.4020000,2.066,-0.0900486
47.49,494.583,0.3950000,2.028,-0.0631043
47.54,495.083,0.3900000,2.002,-0.0412176
47.59,495.583,0.3860000,1.985,-0.0323509
47.64,496.083,0.3830000,1.968,-0.0328145
47.69,496.583,0.3800000,1.952,-0.0306025
47.74,497.083,0.3770000,1.938,-0.0274063
47.79,497.583,0.3750000,1.925,-0.0234557
47.84,498.084,0.3730000,1.914,-0.0203270
47.89,498.584,0.3710000,1.905,-0.0171827
47.94,499.084,0.3690000,1.897,-0.0144364
47.99,499.584,0.3680000,1.891,-0.0118207
48.04,500.084,0.3670000,1.885,-0.0096600
48.09,500.584,0.3660000,1.881,-0.0079679
48.14,501.084,0.3650000,1.877,-0.0064841
48.19,501.584,0.3650000,1.874,-0.0052963
48.24,502.084,0.3640000,1.872,-0.0042582
48.29,502.584,0.3640000,1.87,-0.0030190
48.34,503.084,0.3640000,1.868,-0.0027054
48.39,503.585,0.3630000,1.867,-0.0025105
48.44,504.085,0.3630000,1.866,-0.0019209
48.49,504.585,0.3630000,1.865,-0.0017508
48.54,505.085,0.3630000,1.864,-0.0015391
48.59,505.585,0.3630000,1.864,-0.0014150
48.64,506.085,0.3630000,1.863,-0.0012351
48.69,506.585,0.3620000,1.862,-0.0009419
48.74,507.085,0.3620000,1.862,-0.0009471
48.79,507.585,0.3620000,1.862,-0.0008638
48.84,508.085,0.3620000,1.861,-0.0005801
48.89,508.585,0.3620000,1.861,-0.0005246
48.94,509.086,0.3620000,1.861,-0.0006962
48.99,509.586,0.3620000,1.86,-0.0005968
49.04,510.086,0.3620000,1.86,-0.0005804
49.09,510.586,0.3620000,1.86,-0.0002851
49.14,511.086,0.3620000,1.86,-0.0001515
49.19,511.586,0.3620000,1.86,-0.0001494
49.24,512.086,0.3620000,1.859,-0.0002287
49.29,512.586,0.3620000,1.859,-0.0003337
49.34,513.086,0.3620000,1.859,-0.0000872
49.39,513.586,0.3620000,1.859,-0.0001872
49.44,514.086,0.3620000,1.859,-0.0002887
49.49,514.587,0.3620000,1.859,-0.0001565
49.54,515.087,0.3620000,1.859,-0.0002428
49.59,515.587,0.3620000,1.858,-0.0003064
49.64,516.087,0.3620000,1.858,-0.0001587
49.69,516.587,0.3620000,1.858,-0.0004292
49.74,517.087,0.3620000,1.858,-0.0003328
49.79,517.587,0.3620000,1.858,-0.0004559
49.84,518.087,0.3620000,1.858,-0.0002842
49.89,518.587,0.3620000,1.858,-0.0003192
49.94,519.087,0.3620000,1.857,-0.0004425
49.99,519.587,0.3610000,1.857,-0.0000843
50.04,520.088,0.3610000,1.857,-0.0002086
50.09,520.588,0.3610000,1.857,-0.0000856
50.14,521.088,0.3610000,1.857,0.0001128
50.19,521.588,0.3610000,1.857,-0.0000322
50.24,522.088,0.3610000,1.857,-0.0001606
50.29,522.588,0.3610000,1.857,-0.0002035
50.34,523.088,0.3610000,1.857,-0.0002393
50.39,523.588,0.3610000,1.857,-0.0002571
50.44,524.088,0.3610000,1.856,-0.0003356
50.49,524.588,0.3610000,1.856,-0.0005092
50.54,525.088,0.3610000,1.856,-0.0003628
50.59,525.588,0.3610000,1.856,-0.0003767
50.64,526.089,0.3610000,1.856,-0.0007201
50.69,526.589,0.3610000,1.856,-0.0003943
50.74,527.089,0.3610000,1.855,-0.0003322
50.79,527.589,0.3610000,1.855,-0.0003995
50.84,528.089,0.3610000,1.855,-0.0000600
50.89,528.589,0.3610000,1.855,-0.0003667
50.94,529.089,0.3610000,1.855,-0.0001150
50.99,529.589,0.3610000,1.855,-0.0001636
51.04,530.089,0.3610000,1.855,-0.0001093
51.09,530.589,0.3610000,1.854,-0.0002464
51.14,531.089,0.3610000,1.854,-0.0003388
51.19,531.59,0.3610000,1.854,-0.0003716
51.24,532.09,0.3610000,1.854,-0.0003624
51.29,532.59,0.3610000,1.854,-0.0004088
51.34,533.09,0.3610000,1.853,-0.0004410
51.39,533.59,0.3610000,1.853,-0.0004458
51.44,534.09,0.3610000,1.853,-0.0003325
51.49,534.59,0.3610000,1.853,-0.0006336
51.54,535.09,0.3610000,1.853,-0.0003181
51.59,535.59,0.3610000,1.852,-0.0005982
51.64,536.09,0.3610000,1.852,-0.0006068
51.69,536.59,0.3600000,1.852,-0.0004502
51.74,537.091,0.3600000,1.852,-0.0005524
51.79,537.591,0.3600000,1.852,-0.0004481
51.84,538.091,0.3600000,1.851,-0.0002194
51.89,538.591,0.3600000,1.851,-0.0002717
51.94,539.091,0.3600000,1.851,-0.0004930
51.99,539.591,0.3600000,1.851,-0.0004194
52.04,540.091,0.3600000,1.85,-0.0002918
52.09,540.591,0.3600000,1.85,-0.0007363
52.14,541.091,0.3600000,1.85,-0.0003924
52.19,541.591,0.3600000,1.85,-0.0007148
52.24,542.091,0.3600000,1.849,-0.0004297
52.29,542.592,0.3600000,1.849,-0.0006560
52.34,543.092,0.3600000,1.849,-0.0007412
52.39,543.592,0.3600000,1.849,-0.0005846
52.44,544.092,0.3600000,1.848,-0.0003255
52.49,544.592,0.3600000,1.848,-0.0006818
52.54,545.092,0.3600000,1.848,-0.0005316
52.59,545.592,0.3600000,1.847,-0.0004765
52.64,546.092,0.3600000,1.847,-0.0005359
52.69,546.592,0.3590000,1.847,-0.0006224
52.74,547.092,0.3590000,1.847,-0.0006998
52.79,547.592,0.3590000,1.846,-0.0007307
52.84,548.093,0.3590000,1.846,-0.0006514
52.89,548.593,0.3590000,1.846,-0.0007747
52.94,549.093,0.3590000,1.845,-0.0008493
52.99,549.593,0.3590000,1.845,-0.0008976
53.04,550.093,0.3590000,1.845,-0.0005946
53.09,550.593,0.3590000,1.844,-0.0006897
53.14,551.093,0.3590000,1.844,-0.0003430
53.19,551.593,0.3590000,1.844,-0.0006426
53.24,552.093,0.3590000,1.844,-0.0005346
53.29,552.593,0.3590000,1.843,-0.0007025
53.34,553.093,0.3590000,1.843,-0.0003744
53.39,553.593,0.3590000,1.843,-0.0003438
53.44,554.094,0.3590000,1.843,-0.0003763
53.49,554.594,0.3590000,1.842,-0.0003879
53.54,555.094,0.3590000,1.842,-0.0005573
53.59,555.594,0.3580000,1.842,-0.0003377
53.64,556.094,0.3580000,1.842,-0.0005624
53.69,556.594,0.3580000,1.841,-0.0006775
53.74,557.094,0.3580000,1.841,-0.0005744
53.79,557.594,0.3580000,1.841,-0.0002998
53.84,558.094,0.3580000,1.84,-0.0006478
53.89,558.594,0.3580000,1.84,-0.0008299
53.94,559.094,0.3580000,1.84,-0.0004968
53.99,559.595,0.3580000,1.84,-0.0002912
54.04,560.095,0.3580000,1.839,-0.0006720
54.09,560.595,0.3580000,1.839,-0.0004801
54.14,561.095,0.3580000,1.839,-0.0003544
54.19,561.595,0.3580000,1.838,-0.0002754
54.24,562.095,0.3580000,1.838,-0.0004616
54.29,562.595,0.3580000,1.838,-0.0005425
54.34,563.095,0.3580000,1.838,-0.0005401
54.39,563.595,0.3580000,1.837,-0.0004130
54.44,564.095,0.3580000,1.837,-0.0006253
54.49,564.595,0.3580000,1.837,-0.0007706
54.54,565.096,0.3570000,1.837,-0.0005054
54.59,565.596,0.3570000,1.836,-0.0002217
54.64,566.096,0.3570000,1.836,-0.0008405
54.69,566.596,0.3570000,1.836,-0.0007493
54.74,567.096,0.3570000,1.835,-0.0004475
54.79,567.596,0.3570000,1.835,-0.0006044
54.84,568.096,0.3570000,1.835,-0.0004873
54.89,568.596,0.3570000,1.834,-0.0003273
54.94,569.096,0.3570000,1.834,-0.0005596
54.99,569.596,0.3570000,1.834,-0.0007013
55.04,570.096,0.3570000,1.834,-0.0005365
55.09,570.597,0.3570000,1.833,-0.0008493
55.14,571.097,0.3570000,1.833,-0.0008855
55.19,571.597,0.3570000,1.833,-0.0007118
55.24,572.097,0.3570000,1.832,-0.0006231
55.29,572.597,0.3570000,1.832,-0.0006790
55.34,573.097,0.3570000,1.832,-0.0006933
55.39,573.597,0.3560000,1.831,-0.0006689
55.44,574.097,0.3560000,1.831,-0.0007698
55.49,574.597,0.3560000,1.831,-0.0008551
55.54,575.097,0.3560000,1.83,-0.0007039
55.59,575.597,0.3560000,1.83,-0.0007902
55.64,576.098,0.3560000,1.829,-0.0006356
55.69,576.598,0.3560000,1.829,-0.0008976
55.74,577.098,0.3560000,1.828,-0.0008635
55.79,577.598,0.3560000,1.828,-0.0010698
55.84,578.098,0.3560000,1.827,-0.0011678
55.89,578.598,0.3560000,1.827,-0.0011074
55.94,579.098,0.3550000,1.826,-0.0011653
55.99,579.598,0.3550000,1.826,-0.0010399
56.04,580.098,0.3550000,1.825,-0.0011648
56.09,580.598,0.3550000,1.825,-0.0013029
56.14,581.098,0.3550000,1.824,-0.0007965
56.19,581.598,0.3550000,1.824,-0.0007519
56.24,582.099,0.3550000,1.823,-0.0010510
56.29,582.599,0.3550000,1.823,-0.0008585
56.34,583.099,0.3550000,1.822,-0.0007915
56.39,583.599,0.3550000,1.822,-0.0010677
56.44,584.099,0.3540000,1.821,-0.0009587
56.49,584.599,0.3540000,1.821,-0.0007132
56.54,585.099,0.3540000,1.82,-0.0007551
56.59,585.599,0.3540000,1.82,-0.0011277
56.64,586.099,0.3540000,1.819,-0.0011320
56.69,586.599,0.3540000,1.819,-0.0010799
56.74,587.099,0.3540000,1.818,-0.0009119
56.79,587.6,0.3540000,1.818,-0.0009394
56.84,588.1,0.3540000,1.817,-0.0007997
56.89,588.6,0.3540000,1.817,-0.0009534
56.94,589.1,0.3540000,1.816,-0.0012835
56.99,589.6,0.3530000,1.816,-0.0010591
57.03,590,0.3530000,1.815,-0.0012228