File: R/rHDPE_App/app/www/Output/TGA/Condensed_Data/Resin24_0_.csv
1.04,30,15.023,100.034,0.0028169
1.1,30.5001,15.023,100.035,0.0021865
1.16,31.0002,15.023,100.035,0.0002634
1.22,31.5003,15.023,100.036,0.0015109
1.28,32.0004,15.023,100.037,0.0016511
1.33,32.5004,15.023,100.037,0.0008703
1.39,33.0005,15.023,100.038,0.0027962
1.44,33.5006,15.023,100.039,0.0005051
1.5,34.0007,15.023,100.039,0.0012050
1.55,34.5008,15.024,100.04,0.0007991
1.61,35.0009,15.024,100.041,0.0022374
1.66,35.501,15.024,100.041,0.0007419
1.72,36.0011,15.024,100.042,0.0015770
1.77,36.5012,15.024,100.043,0.0014726
1.82,37.0013,15.024,100.043,0.0004404
1.88,37.5013,15.024,100.044,0.0017080
1.93,38.0014,15.024,100.044,0.0010714
1.98,38.5015,15.024,100.045,0.0011186
2.03,39.0016,15.024,100.046,0.0017467
2.09,39.5017,15.024,100.046,0.0007749
2.14,40.0018,15.025,100.047,0.0013056
2.19,40.5019,15.025,100.047,0.0014486
2.25,41.002,15.025,100.048,0.0009650
2.3,41.5021,15.025,100.048,0.0008194
2.35,42.0021,15.025,100.049,0.0015409
2.41,42.5022,15.025,100.05,0.0012984
2.46,43.0023,15.025,100.05,0.0010566
2.51,43.5024,15.025,100.051,0.0010554
2.56,44.0025,15.025,100.052,0.0014835
2.61,44.5026,15.025,100.052,0.0011469
2.67,45.0027,15.025,100.053,0.0011927
2.72,45.5028,15.026,100.054,0.0012856
2.77,46.0029,15.026,100.054,0.0009505
2.82,46.5029,15.026,100.055,0.0009967
2.87,47.003,15.026,100.055,0.0012800
2.93,47.5031,15.026,100.056,0.0007574
2.98,48.0032,15.026,100.057,0.0009930
3.03,48.5033,15.026,100.057,0.0013227
3.08,49.0034,15.026,100.058,0.0010377
3.13,49.5035,15.026,100.059,0.0008951
3.18,50.0036,15.026,100.059,0.0013180
3.24,50.5037,15.027,100.06,0.0011279
3.29,51.0038,15.027,100.06,0.0014558
3.34,51.5038,15.027,100.061,0.0011724
3.39,52.0039,15.027,100.062,0.0011709
3.44,52.504,15.027,100.062,0.0015435
3.49,53.0041,15.027,100.063,0.0011217
3.54,53.5042,15.027,100.064,0.0010273
3.59,54.0043,15.027,100.064,0.0013532
3.64,54.5044,15.027,100.065,0.0011194
3.69,55.0045,15.027,100.065,0.0016300
3.74,55.5046,15.027,100.066,0.0014892
3.8,56.0046,15.028,100.067,0.0011159
3.85,56.5047,15.028,100.067,0.0011145
3.9,57.0048,15.028,100.068,0.0013459
3.95,57.5049,15.028,100.068,0.0009282
4,58.005,15.028,100.069,0.0012062
4.05,58.5051,15.028,100.069,0.0013437
4.1,59.0052,15.028,100.07,0.0009728
4.15,59.5053,15.028,100.07,0.0014364
4.2,60.0054,15.028,100.071,0.0012496
4.25,60.5054,15.028,100.072,0.0012484
4.3,61.0055,15.028,100.072,0.0012485
4.35,61.5056,15.028,100.073,0.0009704
4.4,62.0057,15.029,100.073,0.0011087
4.45,62.5058,15.029,100.074,0.0011551
4.5,63.0059,15.029,100.074,0.0012926
4.55,63.506,15.029,100.075,0.0011071
4.6,64.0061,15.029,100.075,0.0015220
4.65,64.5062,15.029,100.076,0.0009679
4.7,65.0063,15.029,100.076,0.0011972
4.76,65.5063,15.029,100.077,0.0009672
4.81,66.0064,15.029,100.077,0.0009672
4.86,66.5065,15.029,100.078,0.0008284
4.91,67.0066,15.029,100.078,0.0012874
4.96,67.5067,15.029,100.079,0.0009195
5.01,68.0068,15.029,100.079,0.0011485
5.06,68.5069,15.03,100.08,0.0008730
5.11,69.007,15.03,100.08,0.0011942
5.16,69.5071,15.03,100.081,0.0010096
5.21,70.0071,15.03,100.081,0.0010553
5.26,70.5072,15.03,100.082,0.0011008
5.31,71.0073,15.03,100.082,0.0006884
5.36,71.5074,15.03,100.083,0.0010552
5.41,72.0075,15.03,100.083,0.0011475
5.46,72.5076,15.03,100.084,0.0010094
5.51,73.0077,15.03,100.084,0.0007343
5.56,73.5078,15.03,100.085,0.0009174
5.61,74.0079,15.03,100.085,0.0011004
5.66,74.5079,15.03,100.085,0.0007335
5.71,75.008,15.03,100.086,0.0008709
5.76,75.5081,15.031,100.086,0.0009629
5.81,76.0082,15.031,100.087,0.0009633
5.86,76.5083,15.031,100.087,0.0008708
5.91,77.0084,15.031,100.087,0.0005495
5.96,77.5085,15.031,100.088,0.0010986
6.01,78.0086,15.031,100.088,0.0006859
6.06,78.5087,15.031,100.089,0.0007774
6.11,79.0088,15.031,100.089,0.0011443
6.16,79.5088,15.031,100.09,0.0007324
6.21,80.0089,15.031,100.09,0.0009617
6.26,80.509,15.031,100.09,0.0007325
6.31,81.0091,15.031,100.091,0.0005946
6.36,81.5092,15.031,100.091,0.0007321
6.41,82.0093,15.031,100.091,0.0004574
6.46,82.5094,15.031,100.092,0.0007321
6.51,83.0095,15.031,100.092,0.0005946
6.56,83.5096,15.031,100.092,0.0005948
6.61,84.0096,15.031,100.093,0.0008243
6.66,84.5097,15.032,100.093,0.0009156
6.71,85.0098,15.032,100.093,0.0006863
6.76,85.5099,15.032,100.094,0.0005951
6.81,86.01,15.032,100.094,0.0003205
6.86,86.5101,15.032,100.094,0.0006407
6.91,87.0102,15.032,100.095,0.0008238
6.96,87.5103,15.032,100.095,0.0008686
7.01,88.0104,15.032,100.095,0.0007769
7.06,88.5104,15.032,100.096,0.0006857
7.11,89.0105,15.032,100.096,0.0004115
7.16,89.5106,15.032,100.097,0.0008228
7.21,90.0107,15.032,100.097,0.0004114
7.26,90.5108,15.032,100.097,0.0005030
7.31,91.0109,15.032,100.097,0.0008230
7.36,91.511,15.032,100.098,0.0006859
7.41,92.0111,15.032,100.098,0.0006859
7.46,92.5112,15.032,100.098,0.0005946
7.51,93.0113,15.032,100.099,0.0006401
7.56,93.5113,15.032,100.099,0.0009146
7.61,94.0114,15.032,100.099,0.0005485
7.66,94.5115,15.033,100.1,0.0005941
7.71,95.0116,15.033,100.1,0.0007770
7.76,95.5117,15.033,100.1,0.0005491
7.81,96.0118,15.033,100.101,0.0008237
7.86,96.5119,15.033,100.101,0.0005492
7.91,97.012,15.033,100.101,0.0005955
7.96,97.5121,15.033,100.102,0.0006405
8.01,98.0121,15.033,100.102,0.0002286
8.06,98.5122,15.033,100.102,0.0001829
8.11,99.0123,15.033,100.102,0.0002286
8.16,99.5124,15.033,100.102,0.0006403
8.21,100.013,15.033,100.103,0.0003201
8.26,100.513,15.033,100.103,0.0005033
8.31,101.013,15.033,100.103,0.0005947
8.36,101.513,15.033,100.103,0.0003658
8.41,102.013,15.033,100.104,0.0004571
8.46,102.513,15.033,100.104,0.0004573
8.51,103.013,15.033,100.104,0.0007776
8.56,103.513,15.033,100.104,0.0000915
8.61,104.013,15.033,100.104,0.0005488
8.66,104.513,15.033,100.105,0.0004115
8.71,105.013,15.033,100.105,0.0005492
8.76,105.513,15.033,100.105,0.0006412
8.81,106.014,15.033,100.105,0.0005494
8.86,106.514,15.033,100.105,0.0006414
8.91,107.014,15.033,100.106,0.0006416
8.96,107.514,15.033,100.106,0.0004580
9.01,108.014,15.033,100.106,0.0003659
9.06,108.514,15.034,100.106,0.0002744
9.11,109.014,15.034,100.106,0.0002744
9.16,109.514,15.034,100.107,0.0005033
9.21,110.014,15.034,100.107,0.0004579
9.26,110.514,15.034,100.107,0.0001375
9.31,111.014,15.034,100.107,0.0006410
9.36,111.515,15.034,100.107,0.0003207
9.41,112.015,15.034,100.108,0.0004584
9.46,112.515,15.034,100.108,0.0002290
9.51,113.015,15.034,100.108,0.0003662
9.56,113.515,15.034,100.108,0.0005033
9.61,114.015,15.034,100.108,-0.0001826
9.66,114.515,15.034,100.108,0.0002281
9.71,115.015,15.034,100.109,-0.0000913
9.76,115.515,15.034,100.109,0.0005479
9.81,116.015,15.034,100.109,0.0001829
9.86,116.515,15.034,100.109,0.0003203
9.91,117.016,15.034,100.109,0.0003662
9.96,117.516,15.034,100.109,0.0001833
10.01,118.016,15.034,100.109,0.0005499
10.06,118.516,15.034,100.11,-0.0000000
10.11,119.016,15.034,100.11,0.0002291
10.16,119.516,15.034,100.11,0.0003666
10.21,120.016,15.034,100.11,0.0007790
10.26,120.516,15.034,100.11,0.0004581
10.31,121.016,15.034,100.11,0.0003663
10.36,121.516,15.034,100.111,0.0002746
10.41,122.016,15.034,100.111,0.0003205
10.46,122.517,15.034,100.111,0.0002748
10.51,123.017,15.034,100.111,0.0002293
10.56,123.517,15.034,100.111,0.0009169
10.61,124.017,15.034,100.111,0.0005037
10.66,124.517,15.034,100.112,0.0005495
10.71,125.017,15.034,100.112,0.0003660
10.76,125.517,15.034,100.112,0.0006406
10.81,126.017,15.034,100.113,0.0006413
10.86,126.517,15.034,100.113,0.0007789
10.91,127.017,15.035,100.113,0.0002294
10.96,127.517,15.035,100.113,0.0006426
11.01,128.018,15.035,100.114,0.0003673
11.06,128.518,15.035,100.114,0.0005510
11.11,129.018,15.035,100.114,0.0005506
11.16,129.518,15.035,100.114,0.0004583
11.21,130.018,15.035,100.115,0.0002747
11.26,130.518,15.035,100.115,0.0005952
11.31,131.018,15.035,100.115,0.0005038
11.36,131.518,15.035,100.116,0.0004123
11.41,132.018,15.035,100.116,0.0005040
11.46,132.518,15.035,100.116,0.0006416
11.51,133.018,15.035,100.116,0.0007336
11.56,133.518,15.035,100.117,0.0004129
11.61,134.019,15.035,100.117,0.0005046
11.66,134.519,15.035,100.117,0.0009629
11.71,135.019,15.035,100.117,0.0001832
11.76,135.519,15.035,100.118,0.0003666
11.81,136.019,15.035,100.118,0.0003205
11.86,136.519,15.035,100.118,0.0001371
11.91,137.019,15.035,100.118,0.0000457
11.96,137.519,15.035,100.118,0.0003658
12.01,138.019,15.035,100.118,0.0003201
12.06,138.519,15.035,100.119,-0.0002288
12.11,139.019,15.035,100.119,0.0002745
12.16,139.52,15.035,100.119,0.0001831
12.21,140.02,15.035,100.119,-0.0004575
12.26,140.52,15.035,100.118,-0.0003660
12.31,141.02,15.035,100.118,-0.0005031
12.36,141.52,15.035,100.118,-0.0007320
12.41,142.02,15.035,100.117,-0.0011434
12.46,142.52,15.035,100.117,-0.0012803
12.51,143.02,15.035,100.116,-0.0016458
12.56,143.52,15.035,100.115,-0.0020551
12.61,144.02,15.035,100.114,-0.0015493
12.66,144.52,15.035,100.113,-0.0012295
12.71,145.021,15.034,100.113,-0.0016371
12.76,145.521,15.034,100.112,-0.0014095
12.81,146.021,15.034,100.111,-0.0013197
12.86,146.521,15.034,100.11,-0.0016415
12.91,147.021,15.034,100.11,-0.0011416
12.96,147.521,15.034,100.109,-0.0009139
13.01,148.021,15.034,100.109,-0.0008224
13.06,148.521,15.034,100.108,-0.0010521
13.11,149.021,15.034,100.108,-0.0005036
13.16,149.521,15.034,100.108,-0.0004579
13.21,150.021,15.034,100.107,-0.0007791
13.26,150.522,15.034,100.107,-0.0002752
13.31,151.022,15.034,100.107,-0.0003214
13.36,151.522,15.034,100.107,-0.0005515
13.41,152.022,15.034,100.106,-0.0007356
13.46,152.522,15.033,100.106,-0.0000920
13.51,153.022,15.033,100.106,-0.0007363
13.56,153.522,15.033,100.106,-0.0004139
13.61,154.022,15.033,100.106,-0.0000460
13.66,154.522,15.033,100.105,0.0000000
13.71,155.022,15.033,100.105,-0.0002756
13.76,155.522,15.033,100.105,-0.0002753
13.81,156.023,15.033,100.105,-0.0002292
13.86,156.523,15.033,100.105,-0.0004126
13.91,157.023,15.033,100.105,-0.0000459
13.96,157.523,15.033,100.105,-0.0000918
14.01,158.023,15.033,100.105,0.0000919
14.06,158.523,15.033,100.105,0.0003216
14.11,159.023,15.033,100.105,0.0000459
14.16,159.523,15.033,100.105,0.0000000
14.21,160.023,15.033,100.105,-0.0001835
14.26,160.523,15.033,100.105,0.0002752
14.31,161.023,15.033,100.105,-0.0001374
14.36,161.523,15.033,100.105,-0.0002749
14.41,162.024,15.033,100.105,-0.0000458
14.46,162.524,15.033,100.105,0.0001832
14.51,163.024,15.033,100.104,0.0001375
14.56,163.524,15.033,100.104,-0.0002293
14.61,164.024,15.033,100.104,0.0001377
14.66,164.524,15.033,100.104,-0.0002753
14.71,165.024,15.033,100.104,-0.0001376
14.76,165.524,15.033,100.104,0.0002752
14.81,166.024,15.033,100.104,-0.0001375
14.86,166.524,15.033,100.104,-0.0004582
14.91,167.024,15.033,100.104,-0.0003665
14.96,167.525,15.033,100.104,-0.0000915
15.01,168.025,15.033,100.103,-0.0004117
15.06,168.525,15.033,100.103,-0.0002289
15.11,169.025,15.033,100.103,-0.0004583
15.16,169.525,15.033,100.103,-0.0005501
15.21,170.025,15.033,100.103,-0.0003211
15.26,170.525,15.033,100.103,-0.0002753
15.31,171.025,15.033,100.103,-0.0000458
15.36,171.525,15.033,100.102,-0.0002750
15.41,172.025,15.033,100.102,0.0000001
15.46,172.525,15.033,100.102,-0.0004123
15.51,173.026,15.033,100.102,-0.0001832
15.56,173.526,15.033,100.102,-0.0001832
15.61,174.026,15.033,100.102,-0.0000458
15.66,174.526,15.033,100.102,-0.0001832
15.71,175.026,15.033,100.102,-0.0003660
15.76,175.526,15.033,100.102,-0.0001371
15.81,176.026,15.033,100.102,-0.0003200
15.86,176.526,15.033,100.102,-0.0000457
15.91,177.026,15.033,100.102,-0.0001375
15.96,177.526,15.033,100.102,-0.0003666
16.01,178.026,15.033,100.101,-0.0005041
16.06,178.527,15.033,100.101,0.0000000
16.11,179.027,15.033,100.101,-0.0000459
16.16,179.527,15.033,100.101,-0.0002750
16.21,180.027,15.033,100.101,-0.0004126
16.26,180.527,15.033,100.101,-0.0003206
16.31,181.027,15.033,100.101,-0.0001372
16.36,181.527,15.033,100.101,-0.0001830
16.41,182.027,15.033,100.1,-0.0002288
16.46,182.527,15.033,100.1,0.0001832
16.51,183.027,15.033,100.1,-0.0004124
16.56,183.527,15.033,100.1,-0.0000916
16.61,184.028,15.033,100.1,-0.0000458
16.66,184.528,15.033,100.1,-0.0000458
16.71,185.028,15.033,100.1,-0.0004583
16.76,185.528,15.033,100.1,-0.0002750
16.81,186.028,15.033,100.1,-0.0007336
16.86,186.528,15.032,100.1,-0.0004123
16.91,187.028,15.032,100.099,-0.0002748
16.96,187.528,15.032,100.099,-0.0001373
17.01,188.028,15.032,100.099,-0.0007786
17.06,188.528,15.032,100.099,-0.0002291
17.11,189.028,15.032,100.099,-0.0004122
17.16,189.528,15.032,100.099,-0.0001832
17.21,190.029,15.032,100.099,-0.0001832
17.26,190.529,15.032,100.098,0.0000000
17.31,191.029,15.032,100.098,-0.0004583
17.36,191.529,15.032,100.098,-0.0000458
17.41,192.029,15.032,100.098,-0.0003204
17.46,192.529,15.032,100.098,0.0000458
17.51,193.029,15.032,100.098,-0.0004122
17.56,193.529,15.032,100.098,0.0001374
17.61,194.029,15.032,100.098,-0.0000917
17.66,194.529,15.032,100.098,-0.0002750
17.71,195.029,15.032,100.097,-0.0001833
17.76,195.53,15.032,100.097,-0.0003665
17.81,196.03,15.032,100.097,-0.0005498
17.86,196.53,15.032,100.097,-0.0003665
17.91,197.03,15.032,100.097,-0.0003211
17.96,197.53,15.032,100.097,-0.0002293
18.02,198.03,15.032,100.096,-0.0001835
18.07,198.53,15.032,100.096,-0.0003667
18.12,199.03,15.032,100.096,0.0000458
18.17,199.53,15.032,100.096,-0.0003207
18.22,200.03,15.032,100.096,-0.0003208
18.27,200.53,15.032,100.096,-0.0005044
18.32,201.031,15.032,100.096,-0.0003209
18.37,201.531,15.032,100.096,-0.0002291
18.42,202.031,15.032,100.096,-0.0004123
18.47,202.531,15.032,100.095,-0.0002291
18.52,203.031,15.032,100.095,-0.0003665
18.57,203.531,15.032,100.095,-0.0002287
18.62,204.031,15.032,100.095,-0.0001372
18.67,204.531,15.032,100.095,0.0000000
18.72,205.031,15.032,100.095,-0.0005947
18.77,205.531,15.032,100.094,-0.0005025
18.82,206.031,15.032,100.094,-0.0003200
18.87,206.532,15.032,100.094,-0.0002748
18.92,207.032,15.032,100.094,-0.0004127
18.97,207.532,15.032,100.094,-0.0002754
19.02,208.032,15.032,100.094,-0.0000459
19.07,208.532,15.032,100.094,0.0000000
19.12,209.032,15.032,100.094,-0.0002752
19.17,209.532,15.032,100.093,-0.0005958
19.22,210.032,15.032,100.093,0.0000458
19.27,210.532,15.032,100.093,-0.0000000
19.32,211.032,15.032,100.093,-0.0001833
19.37,211.532,15.031,100.093,-0.0006407
19.42,212.033,15.031,100.093,-0.0005489
19.47,212.533,15.031,100.092,-0.0004576
19.52,213.033,15.031,100.092,-0.0005039
19.57,213.533,15.031,100.092,-0.0000915
19.62,214.033,15.031,100.092,-0.0003665
19.67,214.533,15.031,100.092,-0.0000916
19.72,215.033,15.031,100.092,-0.0002750
19.77,215.533,15.031,100.091,-0.0004124
19.82,216.033,15.031,100.091,-0.0006407
19.87,216.533,15.031,100.091,-0.0000458
19.92,217.033,15.031,100.091,-0.0004124
19.97,217.533,15.031,100.091,-0.0001832
20.02,218.034,15.031,100.091,-0.0005039
20.07,218.534,15.031,100.091,-0.0003668
20.12,219.034,15.031,100.09,-0.0005044
20.17,219.534,15.031,100.09,-0.0001835
20.22,220.034,15.031,100.09,-0.0002752
20.27,220.534,15.031,100.09,-0.0003207
20.32,221.034,15.031,100.09,-0.0005501
20.37,221.534,15.031,100.089,-0.0004124
20.42,222.034,15.031,100.089,-0.0005955
20.47,222.534,15.031,100.089,-0.0003206
20.52,223.034,15.031,100.089,-0.0004576
20.57,223.535,15.031,100.089,-0.0000915
20.62,224.035,15.031,100.089,-0.0007326
20.67,224.535,15.031,100.088,-0.0004583
20.72,225.035,15.031,100.088,-0.0005963
20.77,225.535,15.031,100.088,-0.0002753
20.82,226.035,15.031,100.088,-0.0006879
20.87,226.535,15.031,100.087,0.0000000
20.92,227.035,15.031,100.087,-0.0000457
20.97,227.535,15.031,100.087,-0.0005486
21.02,228.035,15.031,100.087,-0.0003659
21.07,228.535,15.031,100.087,-0.0000915
21.12,229.036,15.031,100.087,-0.0008244
21.17,229.536,15.031,100.086,-0.0004125
21.22,230.036,15.031,100.086,-0.0002291
21.27,230.536,15.03,100.086,-0.0003208
21.32,231.036,15.03,100.086,-0.0002749
21.37,231.536,15.03,100.086,-0.0003209
21.42,232.036,15.03,100.086,-0.0004581
21.47,232.536,15.03,100.085,-0.0004582
21.52,233.036,15.03,100.085,-0.0005040
21.57,233.536,15.03,100.085,-0.0004122
21.62,234.036,15.03,100.085,-0.0007324
21.67,234.537,15.03,100.085,-0.0004580
21.72,235.037,15.03,100.084,-0.0002749
21.77,235.537,15.03,100.084,-0.0005952
21.82,236.037,15.03,100.084,-0.0004114
21.87,236.537,15.03,100.084,-0.0004573
21.92,237.037,15.03,100.084,-0.0005488
21.97,237.537,15.03,100.083,-0.0005955
22.02,238.037,15.03,100.083,-0.0002291
22.07,238.537,15.03,100.083,-0.0006878
22.12,239.037,15.03,100.083,-0.0004127
22.17,239.537,15.03,100.083,-0.0005047
22.22,240.038,15.03,100.082,-0.0004590
22.27,240.538,15.03,100.082,-0.0003670
22.32,241.038,15.03,100.082,-0.0000917
22.37,241.538,15.03,100.082,-0.0003206
22.42,242.038,15.03,100.082,-0.0003664
22.47,242.538,15.03,100.081,-0.0005038
22.52,243.038,15.03,100.081,-0.0003208
22.57,243.538,15.03,100.081,-0.0004578
22.62,244.038,15.03,100.081,-0.0005948
22.67,244.538,15.03,100.081,-0.0002288
22.72,245.038,15.03,100.08,-0.0001830
22.77,245.538,15.03,100.08,-0.0003660
22.82,246.039,15.03,100.08,-0.0005949
22.87,246.539,15.03,100.08,-0.0004578
22.92,247.039,15.029,100.079,-0.0005955
22.97,247.539,15.029,100.079,-0.0008252
23.02,248.039,15.029,100.079,-0.0005508
23.07,248.539,15.029,100.079,-0.0002757
23.12,249.039,15.029,100.078,-0.0005517
23.17,249.539,15.029,100.078,-0.0005044
23.22,250.039,15.029,100.078,-0.0003200
23.27,250.539,15.029,100.077,-0.0004564
23.32,251.039,15.029,100.077,-0.0001371
23.37,251.54,15.029,100.077,-0.0003657
23.42,252.04,15.029,100.077,-0.0005487
23.47,252.54,15.029,100.076,-0.0006864
23.52,253.04,15.029,100.076,-0.0003207
23.57,253.54,15.029,100.076,-0.0005498
23.62,254.04,15.029,100.076,-0.0003207
23.67,254.54,15.029,100.076,-0.0004584
23.72,255.04,15.029,100.076,-0.0005957
23.77,255.54,15.029,100.075,-0.0008700
23.82,256.04,15.029,100.075,-0.0004579
23.87,256.54,15.029,100.075,-0.0005949
23.92,257.041,15.029,100.075,-0.0004126
23.97,257.541,15.029,100.074,-0.0005044
24.02,258.041,15.029,100.074,-0.0005044
24.07,258.541,15.029,100.074,-0.0004584
24.12,259.041,15.029,100.073,-0.0009624
24.17,259.541,15.029,100.073,-0.0003664
24.22,260.041,15.029,100.073,-0.0005955
24.27,260.541,15.028,100.073,-0.0004119
24.32,261.041,15.028,100.072,-0.0006407
24.37,261.541,15.028,100.072,-0.0002289
24.42,262.041,15.028,100.072,-0.0003207
24.47,262.542,15.028,100.072,-0.0005041
24.52,263.042,15.028,100.071,-0.0002291
24.57,263.542,15.028,100.071,-0.0003663
24.62,264.042,15.028,100.071,-0.0005037
24.67,264.542,15.028,100.071,-0.0005498
24.72,265.042,15.028,100.07,-0.0004127
24.77,265.542,15.028,100.07,-0.0008251
24.82,266.042,15.028,100.07,-0.0006874
24.87,266.542,15.028,100.069,-0.0007333
24.92,267.042,15.028,100.069,-0.0005500
24.97,267.542,15.028,100.069,-0.0005958
25.02,268.043,15.028,100.068,-0.0004579
25.07,268.543,15.028,100.068,-0.0003663
25.12,269.043,15.028,100.068,-0.0004123
25.17,269.543,15.028,100.068,-0.0009620
25.22,270.043,15.028,100.067,-0.0004125
25.27,270.543,15.028,100.067,-0.0005497
25.32,271.043,15.028,100.067,-0.0005498
25.37,271.543,15.028,100.066,-0.0007330
25.42,272.043,15.027,100.066,-0.0009611
25.47,272.543,15.027,100.066,-0.0006404
25.52,273.043,15.027,100.065,-0.0007317
25.57,273.543,15.027,100.065,-0.0004576
25.62,274.044,15.027,100.065,-0.0006408
25.67,274.544,15.027,100.064,-0.0006868
25.72,275.044,15.027,100.064,-0.0005951
25.77,275.544,15.027,100.064,-0.0003210
25.82,276.044,15.027,100.063,-0.0005046
25.87,276.544,15.027,100.063,-0.0006422
25.92,277.044,15.027,100.063,-0.0004128
25.97,277.544,15.027,100.062,-0.0005041
26.02,278.044,15.027,100.062,-0.0005492
26.07,278.544,15.027,100.062,-0.0005030
26.12,279.044,15.027,100.062,-0.0010061
26.17,279.545,15.027,100.061,-0.0007319
26.22,280.045,15.027,100.061,-0.0007324
26.27,280.545,15.027,100.061,-0.0008242
26.32,281.045,15.027,100.06,-0.0006870
26.37,281.545,15.027,100.06,-0.0006413
26.42,282.045,15.026,100.059,-0.0008242
26.47,282.545,15.026,100.059,-0.0004123
26.52,283.045,15.026,100.059,-0.0006416
26.57,283.545,15.026,100.058,-0.0005502
26.62,284.045,15.026,100.058,-0.0006881
26.67,284.545,15.026,100.058,-0.0008254
26.72,285.046,15.026,100.057,-0.0005952
26.77,285.546,15.026,100.057,-0.0007788
26.82,286.046,15.026,100.056,-0.0008242
26.87,286.546,15.026,100.056,-0.0009149
26.92,287.046,15.026,100.056,-0.0005943
26.97,287.546,15.026,100.055,-0.0005939
27.02,288.046,15.026,100.055,-0.0005937
27.07,288.546,15.026,100.055,-0.0007759
27.12,289.046,15.026,100.054,-0.0011422
27.17,289.546,15.026,100.054,-0.0007330
27.22,290.046,15.026,100.053,-0.0010100
27.27,290.547,15.025,100.053,-0.0008261
27.32,291.047,15.025,100.053,-0.0005966
27.37,291.547,15.025,100.052,-0.0010551
27.42,292.047,15.025,100.052,-0.0006419
27.47,292.547,15.025,100.051,-0.0005502
27.52,293.047,15.025,100.051,-0.0007794
27.57,293.547,15.025,100.05,-0.0007339
27.62,294.047,15.025,100.05,-0.0004587
27.67,294.547,15.025,100.05,-0.0008245
27.72,295.047,15.025,100.049,-0.0009611
27.77,295.547,15.025,100.049,-0.0006399
27.82,296.048,15.025,100.049,-0.0009605
27.87,296.548,15.025,100.048,-0.0008237
27.92,297.048,15.025,100.048,-0.0005952
27.97,297.548,15.025,100.047,-0.0005030
28.02,298.048,15.025,100.047,-0.0008688
28.07,298.548,15.025,100.047,-0.0009606
28.12,299.048,15.024,100.046,-0.0005495
28.17,299.548,15.024,100.046,-0.0008704
28.22,300.048,15.024,100.045,-0.0008242
28.27,300.548,15.024,100.045,-0.0008696
28.32,301.048,15.024,100.045,-0.0007784
28.37,301.548,15.024,100.044,-0.0010079
28.42,302.049,15.024,100.044,-0.0007329
28.47,302.549,15.024,100.043,-0.0010535
28.52,303.049,15.024,100.043,-0.0005500
28.57,303.549,15.024,100.042,-0.0009612
28.62,304.049,15.024,100.042,-0.0006390
28.67,304.549,15.024,100.042,-0.0009585
28.72,305.049,15.024,100.041,-0.0007774
28.77,305.549,15.024,100.041,-0.0006418
28.82,306.049,15.024,100.04,-0.0007344
28.87,306.549,15.023,100.04,-0.0010097
28.92,307.049,15.023,100.039,-0.0008728
28.97,307.55,15.023,100.039,-0.0011017
29.02,308.05,15.023,100.038,-0.0009630
29.07,308.55,15.023,100.038,-0.0008251
29.12,309.05,15.023,100.037,-0.0008246
29.17,309.55,15.023,100.037,-0.0006418
29.22,310.05,15.023,100.036,-0.0010087
29.27,310.55,15.023,100.036,-0.0010082
29.33,311.05,15.023,100.035,-0.0008700
29.38,311.55,15.023,100.035,-0.0007313
29.42,312.05,15.023,100.034,-0.0006856
29.47,312.55,15.023,100.034,-0.0009136
29.52,313.051,15.023,100.033,-0.0007313
29.57,313.551,15.022,100.033,-0.0008700
29.62,314.051,15.022,100.032,-0.0008691
29.67,314.551,15.022,100.032,-0.0010525
29.72,315.051,15.022,100.031,-0.0009607
29.77,315.551,15.022,100.031,-0.0007317
29.82,316.051,15.022,100.03,-0.0010983
29.87,316.551,15.022,100.03,-0.0009169
29.92,317.051,15.022,100.029,-0.0010551
29.97,317.551,15.022,100.029,-0.0012837
30.02,318.051,15.022,100.028,-0.0014202
30.07,318.552,15.022,100.028,-0.0015104
30.12,319.052,15.022,100.027,-0.0013274
30.17,319.552,15.022,100.026,-0.0013736
30.22,320.052,15.021,100.026,-0.0009621
30.27,320.552,15.021,100.025,-0.0011910
30.32,321.052,15.021,100.025,-0.0010079
30.37,321.552,15.021,100.024,-0.0014200
30.43,322.052,15.021,100.024,-0.0010989
30.48,322.552,15.021,100.023,-0.0006413
30.53,323.052,15.021,100.022,-0.0008224
30.57,323.552,15.021,100.022,-0.0010512
30.62,324.053,15.021,100.021,-0.0009612
30.67,324.553,15.021,100.021,-0.0007326
30.72,325.053,15.021,100.02,-0.0011909
30.77,325.553,15.021,100.02,-0.0009169
30.83,326.053,15.02,100.019,-0.0012825
30.88,326.553,15.02,100.019,-0.0010535
30.93,327.053,15.02,100.018,-0.0014207
30.98,327.553,15.02,100.017,-0.0010076
31.03,328.053,15.02,100.017,-0.0009615
31.08,328.553,15.02,100.016,-0.0013291
31.13,329.053,15.02,100.016,-0.0011909
31.18,329.553,15.02,100.015,-0.0012340
31.23,330.054,15.02,100.014,-0.0012333
31.28,330.554,15.02,100.014,-0.0011426
31.33,331.054,15.02,100.013,-0.0010521
31.37,331.554,15.019,100.013,-0.0010989
31.43,332.054,15.019,100.012,-0.0010993
31.48,332.554,15.019,100.011,-0.0009152
31.53,333.054,15.019,100.011,-0.0013749
31.58,333.554,15.019,100.01,-0.0014679
31.63,334.054,15.019,100.009,-0.0012860
31.68,334.554,15.019,100.009,-0.0012856
31.73,335.054,15.019,100.008,-0.0012363
31.78,335.555,15.019,100.007,-0.0014187
31.83,336.055,15.019,100.007,-0.0012813
31.88,336.555,15.018,100.006,-0.0015559
31.93,337.055,15.018,100.005,-0.0015096
31.98,337.555,15.018,100.004,-0.0015094
32.03,338.055,15.018,100.004,-0.0013261
32.08,338.555,15.018,100.003,-0.0014168
32.13,339.055,15.018,100.002,-0.0011426
32.18,339.555,15.018,100.002,-0.0014176
32.22,340.055,15.018,100.001,-0.0016011
32.27,340.555,15.018,100,-0.0011898
32.32,341.056,15.017,100,-0.0016026
32.37,341.556,15.017,99.999,-0.0014652
32.43,342.056,15.017,99.998,-0.0017867
32.48,342.556,15.017,99.997,-0.0016037
32.53,343.056,15.017,99.996,-0.0016963
32.58,343.556,15.017,99.996,-0.0013291
32.63,344.056,15.017,99.995,-0.0015582
32.68,344.556,15.017,99.994,-0.0017424
32.73,345.056,15.017,99.993,-0.0013286
32.78,345.556,15.016,99.992,-0.0018766
32.83,346.056,15.016,99.991,-0.0016499
32.88,346.557,15.016,99.991,-0.0016017
32.93,347.057,15.016,99.99,-0.0016017
32.98,347.557,15.016,99.989,-0.0018773
33.03,348.057,15.016,99.988,-0.0019696
33.08,348.557,15.016,99.987,-0.0016957
33.13,349.057,15.015,99.986,-0.0019707
33.18,349.557,15.015,99.985,-0.0019635
33.23,350.057,15.015,99.984,-0.0020514
33.28,350.557,15.015,99.983,-0.0020978
33.33,351.057,15.015,99.982,-0.0023326
33.38,351.557,15.015,99.981,-0.0021560
33.43,352.058,15.015,99.98,-0.0021101
33.48,352.558,15.014,99.979,-0.0022948
33.53,353.058,15.014,99.978,-0.0024758
33.58,353.558,15.014,99.977,-0.0022906
33.63,354.058,15.014,99.976,-0.0021090
33.68,354.558,15.014,99.975,-0.0020147
33.73,355.058,15.014,99.974,-0.0021493
33.78,355.558,15.013,99.973,-0.0019189
33.83,356.058,15.013,99.971,-0.0023300
33.88,356.558,15.013,99.97,-0.0025603
33.93,357.058,15.013,99.969,-0.0024689
33.98,357.558,15.013,99.968,-0.0025608
34.03,358.059,15.012,99.966,-0.0024267
34.08,358.559,15.012,99.965,-0.0025674
34.13,359.059,15.012,99.964,-0.0024748
34.18,359.559,15.012,99.962,-0.0025665
34.23,360.059,15.012,99.961,-0.0027498
34.28,360.559,15.012,99.96,-0.0025674
34.33,361.059,15.011,99.959,-0.0026621
34.38,361.559,15.011,99.957,-0.0028915
34.43,362.059,15.011,99.956,-0.0027982
34.48,362.559,15.011,99.954,-0.0028857
34.53,363.059,15.01,99.953,-0.0030220
34.58,363.56,15.01,99.951,-0.0026950
34.63,364.06,15.01,99.95,-0.0029197
34.68,364.56,15.01,99.948,-0.0033321
34.73,365.06,15.01,99.947,-0.0030554
34.78,365.56,15.009,99.945,-0.0030126
34.83,366.06,15.009,99.944,-0.0031518
34.88,366.56,15.009,99.942,-0.0034278
34.93,367.06,15.009,99.94,-0.0034309
34.98,367.56,15.008,99.939,-0.0032997
35.03,368.06,15.008,99.937,-0.0032569
35.08,368.56,15.008,99.935,-0.0033028
35.13,369.061,15.008,99.933,-0.0037615
35.18,369.561,15.007,99.931,-0.0039428
35.23,370.061,15.007,99.93,-0.0037580
35.28,370.561,15.007,99.928,-0.0037566
35.33,371.061,15.006,99.926,-0.0040736
35.38,371.561,15.006,99.924,-0.0042605
35.43,372.061,15.006,99.922,-0.0043538
35.48,372.561,15.005,99.919,-0.0044447
35.53,373.061,15.005,99.917,-0.0046220
35.58,373.561,15.005,99.915,-0.0045763
35.63,374.061,15.004,99.913,-0.0050366
35.68,374.562,15.004,99.91,-0.0052294
35.73,375.062,15.004,99.908,-0.0048103
35.78,375.562,15.003,99.905,-0.0048966
35.83,376.062,15.003,99.903,-0.0052169
35.88,376.562,15.003,99.9,-0.0052920
35.93,377.062,15.002,99.898,-0.0053424
35.98,377.562,15.002,99.895,-0.0052588
36.03,378.062,15.001,99.892,-0.0054457
36.08,378.562,15.001,99.889,-0.0058630
36.13,379.062,15.001,99.887,-0.0057692
36.18,379.562,15,99.884,-0.0060440
36.23,380.063,15,99.88,-0.0061813
36.28,380.563,14.999,99.877,-0.0063621
36.33,381.063,14.999,99.874,-0.0065452
36.38,381.563,14.998,99.871,-0.0066850
36.43,382.063,14.998,99.867,-0.0066850
36.48,382.563,14.997,99.864,-0.0071952
36.53,383.063,14.997,99.86,-0.0072869
36.58,383.563,14.996,99.857,-0.0076535
36.63,384.063,14.995,99.853,-0.0079299
36.68,384.563,14.995,99.849,-0.0079670
36.73,385.063,14.994,99.845,-0.0084172
36.78,385.563,14.994,99.841,-0.0085165
36.83,386.064,14.993,99.836,-0.0087832
36.88,386.564,14.992,99.832,-0.0089123
36.93,387.064,14.992,99.828,-0.0092237
36.98,387.564,14.991,99.823,-0.0095978
37.03,388.064,14.99,99.818,-0.0101153
37.08,388.564,14.989,99.813,-0.0104128
37.13,389.064,14.989,99.807,-0.0105104
37.18,389.564,14.988,99.802,-0.0111989
37.23,390.064,14.987,99.796,-0.0114679
37.28,390.564,14.986,99.79,-0.0115885
37.33,391.064,14.985,99.784,-0.0123124
37.38,391.565,14.984,99.778,-0.0124886
37.43,392.065,14.983,99.772,-0.0128135
37.48,392.565,14.982,99.765,-0.0134443
37.53,393.065,14.981,99.758,-0.0140388
37.58,393.565,14.98,99.751,-0.0143862
37.63,394.065,14.979,99.744,-0.0146629
37.68,394.565,14.978,99.737,-0.0154479
37.73,395.065,14.977,99.729,-0.0157851
37.78,395.565,14.976,99.721,-0.0166146
37.83,396.065,14.974,99.712,-0.0174013
37.88,396.565,14.973,99.703,-0.0175286
37.93,397.066,14.972,99.694,-0.0181459
37.98,397.566,14.97,99.685,-0.0187443
38.03,398.066,14.969,99.676,-0.0193186
38.08,398.566,14.967,99.666,-0.0198833
38.13,399.066,14.966,99.656,-0.0206280
38.18,399.566,14.964,99.646,-0.0213203
38.23,400.066,14.963,99.635,-0.0217411
38.28,400.566,14.961,99.624,-0.0224909
38.33,401.066,14.959,99.612,-0.0231592
38.38,401.566,14.958,99.6,-0.0245197
38.43,402.066,14.956,99.588,-0.0249679
38.48,402.567,14.954,99.575,-0.0258478
38.53,403.067,14.952,99.562,-0.0266172
38.58,403.567,14.95,99.549,-0.0276402
38.63,404.067,14.948,99.534,-0.0284299
38.68,404.567,14.945,99.52,-0.0292421
38.73,405.067,14.943,99.505,-0.0297989
38.78,405.567,14.941,99.49,-0.0309932
38.83,406.067,14.939,99.474,-0.0319246
38.88,406.567,14.936,99.458,-0.0326465
38.93,407.067,14.934,99.441,-0.0339178
38.98,407.567,14.931,99.424,-0.0348635
39.03,408.068,14.928,99.407,-0.0361462
39.08,408.568,14.926,99.388,-0.0371219
39.13,409.068,14.923,99.37,-0.0382817
39.18,409.568,14.92,99.35,-0.0393629
39.23,410.068,14.917,99.33,-0.0402651
39.28,410.568,14.914,99.31,-0.0413548
39.33,411.068,14.911,99.289,-0.0427464
39.38,411.568,14.907,99.267,-0.0439941
39.43,412.068,14.904,99.244,-0.0456374
39.48,412.568,14.901,99.221,-0.0463691
39.53,413.068,14.897,99.198,-0.0477888
39.58,413.568,14.893,99.174,-0.0490867
39.63,414.069,14.89,99.149,-0.0506781
39.68,414.569,14.886,99.123,-0.0516782
39.73,415.069,14.882,99.097,-0.0529871
39.78,415.569,14.878,99.071,-0.0539945
39.83,416.069,14.874,99.043,-0.0554841
39.88,416.569,14.87,99.015,-0.0567890
39.93,417.069,14.865,98.987,-0.0580619
39.98,417.569,14.861,98.957,-0.0592694
40.03,418.069,14.856,98.927,-0.0606282
40.08,418.569,14.852,98.896,-0.0624771
40.13,419.069,14.847,98.865,-0.0640088
40.18,419.57,14.842,98.832,-0.0655535
40.23,420.07,14.837,98.799,-0.0673218
40.28,420.57,14.832,98.765,-0.0694241
40.33,421.07,14.827,98.729,-0.0724609
40.38,421.57,14.821,98.692,-0.0744048
40.43,422.07,14.815,98.652,-0.0800656
40.48,422.57,14.809,98.609,-0.0906214
40.53,423.07,14.802,98.562,-0.0946429
40.58,423.57,14.795,98.516,-0.0969889
40.63,424.07,14.787,98.463,-0.1056830
40.68,424.57,14.779,98.41,-0.1057870
40.73,425.071,14.77,98.355,-0.1127150
40.78,425.571,14.762,98.297,-0.1160750
40.83,426.071,14.753,98.237,-0.1226670
40.88,426.571,14.743,98.175,-0.1226250
40.93,427.071,14.734,98.112,-0.1328940
40.98,427.571,14.724,98.045,-0.1363100
41.03,428.071,14.714,97.98,-0.1385280
41.08,428.571,14.703,97.906,-0.1510610
41.13,429.071,14.691,97.825,-0.1712180
41.18,429.571,14.678,97.74,-0.1696510
41.23,430.071,14.665,97.654,-0.1744070
41.28,430.572,14.652,97.566,-0.1756110
41.33,431.072,14.638,97.475,-0.1815310
41.38,431.572,14.625,97.384,-0.1858420
41.43,432.072,14.611,97.291,-0.1912710
41.48,432.572,14.596,97.195,-0.1981680
41.53,433.072,14.581,97.096,-0.1986900
41.58,433.572,14.566,96.995,-0.2100670
41.63,434.072,14.55,96.887,-0.2165460
41.68,434.572,14.534,96.779,-0.2240490
41.73,435.072,14.517,96.665,-0.2322240
41.78,435.572,14.499,96.547,-0.2379260
41.83,436.073,14.48,96.423,-0.2535800
41.88,436.573,14.461,96.295,-0.2669970
41.93,437.073,14.441,96.158,-0.2791060
41.98,437.573,14.42,96.019,-0.2824390
42.03,438.073,14.398,95.874,-0.2931460
42.08,438.573,14.375,95.724,-0.3090810
42.13,439.073,14.352,95.567,-0.3166060
42.18,439.573,14.327,95.402,-0.3304950
42.23,440.073,14.302,95.234,-0.3423530
42.28,440.573,14.275,95.058,-0.3653060
42.33,441.073,14.247,94.87,-0.3988180
42.38,441.573,14.218,94.675,-0.3959170
42.43,442.074,14.187,94.468,-0.4216970
42.48,442.574,14.154,94.251,-0.4491580
42.53,443.074,14.121,94.027,-0.4600220
42.58,443.574,14.083,93.78,-0.5147890
42.63,444.074,14.044,93.518,-0.5465300
42.68,444.574,14.001,93.232,-0.5906220
42.73,445.074,13.955,92.927,-0.6379470
42.78,445.574,13.905,92.594,-0.7119050
42.83,446.074,13.853,92.244,-0.7289000
42.88,446.574,13.799,91.884,-0.7092120
42.93,447.074,13.744,91.521,-0.7171390
42.98,447.575,13.687,91.142,-0.7391090
43.03,448.075,13.629,90.755,-0.8021960
43.08,448.575,13.568,90.345,-0.8597240
43.13,449.075,13.502,89.906,-0.9238310
43.18,449.575,13.432,89.445,-0.9408770
43.23,450.075,13.359,88.959,-0.9986260
43.28,450.575,13.28,88.433,-1.08199
43.33,451.075,13.2,87.9,-1.06023
43.38,451.575,13.121,87.374,-1.07528
43.43,452.075,13.038,86.818,-1.14683
43.48,452.575,12.948,86.222,-1.19672
43.53,453.076,12.857,85.613,-1.25741
43.58,453.576,12.762,84.98,-1.2799
43.63,454.076,12.662,84.313,-1.34592
43.68,454.576,12.558,83.622,-1.43957
43.73,455.076,12.446,82.873,-1.55872
43.78,455.576,12.329,82.095,-1.56278
43.83,456.076,12.213,81.326,-1.53342
43.88,456.576,12.087,80.488,-1.64719
43.93,457.076,11.964,79.668,-1.63954
43.98,457.576,11.836,78.814,-1.8197
44.03,458.076,11.704,77.938,-1.75616
44.08,458.577,11.564,77.001,-1.98096
44.13,459.077,11.413,75.995,-1.99927
44.18,459.577,11.26,74.981,-2.12734
44.23,460.077,11.092,73.859,-2.29381
44.28,460.577,10.921,72.723,-2.105
44.33,461.077,10.754,71.607,-2.37893
44.38,461.577,10.57,70.382,-2.39142
44.43,462.077,10.381,69.126,-2.62131
44.48,462.577,10.182,67.803,-2.47553
44.53,463.077,9.999,66.579,-2.59058
44.58,463.577,9.797,65.24,-2.83183
44.63,464.078,9.577,63.77,-2.94724
44.68,464.578,9.357,62.304,-3.11137
44.73,465.078,9.115,60.698,-3.28891
44.78,465.578,8.868,59.053,-3.36012
44.83,466.078,8.616,57.376,-3.14835
44.88,466.578,8.376,55.772,-3.41692
44.93,467.078,8.116,54.041,-3.56477
44.98,467.578,7.848,52.257,-3.58695
45.03,468.078,7.574,50.434,-3.79416
45.08,468.578,7.294,48.569,-3.58159
45.13,469.078,7.014,46.708,-3.91462
45.18,469.578,6.723,44.769,-3.99447
45.23,470.079,6.424,42.775,-3.90193
45.28,470.579,6.125,40.782,-3.98026
45.33,471.079,5.825,38.789,-4.03979
45.38,471.579,5.514,36.718,-4.05357
45.43,472.079,5.198,34.616,-4.1665
45.48,472.579,4.879,32.487,-4.04982
45.53,473.079,4.567,30.414,-4.19078
45.58,473.579,4.264,28.393,-4.39501
45.63,474.079,3.95,26.302,-4.11723
45.68,474.579,3.647,24.282,-4.04098
45.73,475.079,3.336,22.213,-4.08292
45.78,475.58,3.039,20.237,-3.79736
45.83,476.08,2.751,18.322,-3.86706
45.88,476.58,2.46,16.384,-4.03098
45.93,477.08,2.164,14.411,-3.99601
45.98,477.58,1.877,12.499,-3.61363
46.03,478.08,1.61,10.724,-2.66054
46.08,478.58,1.411,9.393,-2.69668
46.13,479.08,1.206,8.032,-2.69916
46.18,479.58,1.014,6.755,-2.44784
46.23,480.08,0.8440000,5.62,-2.13378
46.28,480.58,0.6850000,4.564,-2.01945
46.33,481.081,0.5470000,3.642,-1.75609
46.38,481.581,0.4230000,2.818,-1.40684
46.43,482.081,0.3240000,2.159,-1.18937
46.48,482.581,0.2430000,1.62,-0.9611050
46.53,483.081,0.1760000,1.173,-0.7862270
46.58,483.581,0.1250000,0.8330000,-0.5489700
46.62,484.081,0.0880000,0.5890000,-0.4035350
46.67,484.581,0.0620000,0.4100000,-0.2957320
46.72,485.081,0.0430000,0.2890000,-0.1889680
46.77,485.581,0.0320000,0.2110000,-0.1187040
46.82,486.081,0.0250000,0.1670000,-0.0698860
46.87,486.582,0.0210000,0.1420000,-0.0334318
46.92,487.082,0.0190000,0.1250000,-0.0351384
46.97,487.582,0.0160000,0.1080000,-0.0327156
47.02,488.082,0.0140000,0.0920000,-0.0286715
47.07,488.582,0.0120000,0.0790000,-0.0232293
47.12,489.082,0.0100000,0.0690000,-0.0192400
47.17,489.582,0.0090000,0.0600000,-0.0147252
47.22,490.082,0.0080000,0.0540000,-0.0116174
47.28,490.582,0.0070000,0.0490000,-0.0086643
47.33,491.082,0.0070000,0.0450000,-0.0069890
47.38,491.582,0.0060000,0.0420000,-0.0051462
47.43,492.083,0.0060000,0.0390000,-0.0042326
47.48,492.583,0.0060000,0.0380000,-0.0035500
47.53,493.083,0.0050000,0.0360000,-0.0024376
47.58,493.583,0.0050000,0.0350000,-0.0014764
47.63,494.083,0.0050000,0.0340000,-0.0011496
47.68,494.583,0.0050000,0.0340000,-0.0010544
47.73,495.083,0.0050000,0.0330000,-0.0007653
47.78,495.583,0.0050000,0.0330000,-0.0006597
47.83,496.083,0.0050000,0.0330000,-0.0004524
47.88,496.583,0.0050000,0.0320000,-0.0003388
47.93,497.083,0.0050000,0.0320000,-0.0001177
47.98,497.583,0.0050000,0.0320000,-0.0003874
48.03,498.084,0.0050000,0.0320000,-0.0000824
48.08,498.584,0.0050000,0.0320000,-0.0003671
48.13,499.084,0.0050000,0.0320000,0.0002365
48.18,499.584,0.0050000,0.0320000,-0.0001847
48.23,500.084,0.0050000,0.0320000,0.0000145
48.28,500.584,0.0050000,0.0320000,-0.0002049
48.33,501.084,0.0050000,0.0320000,0.0000152
48.38,501.584,0.0050000,0.0320000,-0.0000801
48.43,502.084,0.0050000,0.0320000,-0.0003489
48.48,502.584,0.0050000,0.0320000,0.0001316
48.53,503.084,0.0050000,0.0320000,0.0000891
48.58,503.585,0.0050000,0.0320000,-0.0000957
48.63,504.085,0.0050000,0.0320000,-0.0002741
48.68,504.585,0.0050000,0.0320000,0.0003793
48.73,505.085,0.0050000,0.0320000,-0.0000406
48.78,505.585,0.0050000,0.0320000,0.0000009
48.83,506.085,0.0050000,0.0320000,0.0000464
48.87,506.585,0.0050000,0.0320000,0.0001604
48.92,507.085,0.0050000,0.0320000,0.0000237
48.97,507.585,0.0050000,0.0320000,0.0001368
49.02,508.085,0.0050000,0.0320000,0.0002138
49.07,508.585,0.0050000,0.0320000,-0.0000285
49.12,509.086,0.0050000,0.0320000,0.0002236
49.18,509.586,0.0050000,0.0320000,-0.0000583
49.23,510.086,0.0050000,0.0320000,-0.0000927
49.28,510.586,0.0050000,0.0320000,0.0001913
49.33,511.086,0.0050000,0.0330000,0.0000795
49.37,511.586,0.0050000,0.0330000,0.0001278
49.43,512.086,0.0050000,0.0330000,-0.0002114
49.48,512.586,0.0050000,0.0330000,-0.0000089
49.52,513.086,0.0050000,0.0330000,0.0001578
49.57,513.586,0.0050000,0.0330000,0.0002007
49.62,514.086,0.0050000,0.0330000,0.0001130
49.67,514.587,0.0050000,0.0330000,0.0002641
49.72,515.087,0.0050000,0.0330000,0.0001404
49.77,515.587,0.0050000,0.0330000,-0.0001049
49.82,516.087,0.0050000,0.0330000,-0.0000079
49.87,516.587,0.0050000,0.0330000,-0.0001852
49.92,517.087,0.0050000,0.0330000,-0.0001177
49.97,517.587,0.0050000,0.0330000,0.0002024
50.02,518.087,0.0050000,0.0330000,0.0002513
50.07,518.587,0.0050000,0.0330000,0.0001406
50.12,519.087,0.0050000,0.0330000,0.0003103
50.17,519.587,0.0050000,0.0330000,0.0002575
50.22,520.088,0.0050000,0.0330000,0.0001387
50.27,520.588,0.0050000,0.0330000,0.0002011
50.32,521.088,0.0050000,0.0330000,0.0001426
50.37,521.588,0.0050000,0.0330000,0.0000324
50.42,522.088,0.0050000,0.0330000,0.0002297
50.47,522.588,0.0050000,0.0330000,0.0003386
50.52,523.088,0.0050000,0.0330000,0.0000264
50.57,523.588,0.0050000,0.0330000,-0.0000361
50.62,524.088,0.0050000,0.0330000,0.0002155
50.67,524.588,0.0050000,0.0340000,-0.0000532
50.72,525.088,0.0050000,0.0340000,0.0001736
50.77,525.588,0.0050000,0.0340000,-0.0000271
50.82,526.089,0.0050000,0.0340000,0.0004114
50.87,526.589,0.0050000,0.0340000,0.0001592
50.92,527.089,0.0050000,0.0340000,-0.0002089
50.97,527.589,0.0050000,0.0340000,0.0003024
51.02,528.089,0.0050000,0.0340000,0.0002326
51.07,528.589,0.0050000,0.0340000,0.0001644
51.12,529.089,0.0050000,0.0340000,0.0001834
51.17,529.589,0.0050000,0.0340000,0.0001167
51.22,530.089,0.0050000,0.0340000,0.0000005
51.27,530.589,0.0050000,0.0340000,0.0002531
51.32,531.089,0.0050000,0.0340000,0.0000534
51.37,531.59,0.0050000,0.0340000,-0.0000422
51.42,532.09,0.0050000,0.0340000,0.0002136
51.47,532.59,0.0050000,0.0340000,0.0001017
51.52,533.09,0.0050000,0.0340000,-0.0000101
51.57,533.59,0.0050000,0.0340000,-0.0000220
51.62,534.09,0.0050000,0.0340000,-0.0000480
51.67,534.59,0.0050000,0.0340000,0.0001467
51.72,535.09,0.0050000,0.0340000,0.0002618
51.77,535.59,0.0050000,0.0340000,-0.0001880
51.82,536.09,0.0050000,0.0340000,0.0002205
51.87,536.59,0.0050000,0.0340000,0.0003053
51.92,537.091,0.0050000,0.0340000,0.0001576
51.97,537.591,0.0050000,0.0340000,0.0002322
52.02,538.091,0.0050000,0.0340000,0.0001100
52.07,538.591,0.0050000,0.0340000,-0.0001104
52.12,539.091,0.0050000,0.0340000,0.0000206
52.17,539.591,0.0050000,0.0340000,0.0002337
52.22,540.091,0.0050000,0.0340000,-0.0001020
52.27,540.591,0.0050000,0.0340000,-0.0001145
52.32,541.091,0.0050000,0.0340000,0.0001187
52.37,541.591,0.0050000,0.0340000,-0.0000318
52.42,542.091,0.0050000,0.0350000,0.0002639
52.47,542.592,0.0050000,0.0350000,0.0002368
52.52,543.092,0.0050000,0.0350000,0.0001196
52.57,543.592,0.0050000,0.0350000,-0.0001827
52.62,544.092,0.0050000,0.0350000,0.0001271
52.67,544.592,0.0050000,0.0350000,0.0001365
52.72,545.092,0.0050000,0.0350000,-0.0000822
52.77,545.592,0.0050000,0.0350000,-0.0001810
52.82,546.092,0.0050000,0.0350000,-0.0000049
52.87,546.592,0.0050000,0.0350000,0.0002447
52.92,547.092,0.0050000,0.0350000,-0.0000278
52.97,547.592,0.0050000,0.0350000,0.0000652
53.02,548.093,0.0050000,0.0350000,0.0005260
53.07,548.593,0.0050000,0.0350000,-0.0000319
53.12,549.093,0.0050000,0.0350000,0.0002286
53.17,549.593,0.0050000,0.0350000,0.0004609
53.22,550.093,0.0050000,0.0350000,0.0003104
53.27,550.593,0.0050000,0.0350000,-0.0001282
53.32,551.093,0.0050000,0.0350000,0.0001753
53.37,551.593,0.0050000,0.0350000,0.0002142
53.42,552.093,0.0050000,0.0360000,0.0001885
53.47,552.593,0.0050000,0.0360000,0.0001935
53.52,553.093,0.0050000,0.0360000,0.0002103
53.57,553.593,0.0050000,0.0360000,-0.0001115
53.62,554.094,0.0050000,0.0360000,0.0000882
53.67,554.594,0.0050000,0.0360000,-0.0001539
53.72,555.094,0.0050000,0.0360000,-0.0000818
53.77,555.594,0.0050000,0.0360000,0.0002507
53.82,556.094,0.0050000,0.0360000,-0.0001061
53.87,556.594,0.0050000,0.0360000,-0.0000603
53.92,557.094,0.0050000,0.0360000,0.0001141
53.97,557.594,0.0050000,0.0360000,0.0000461
54.02,558.094,0.0050000,0.0360000,0.0002663
54.07,558.594,0.0050000,0.0360000,0.0003100
54.12,559.094,0.0050000,0.0360000,0.0001232
54.17,559.595,0.0050000,0.0360000,0.0001376
54.22,560.095,0.0050000,0.0360000,-0.0000501
54.27,560.595,0.0050000,0.0360000,0.0001154
54.32,561.095,0.0050000,0.0360000,0.0001140
54.37,561.595,0.0050000,0.0360000,0.0003776
54.42,562.095,0.0050000,0.0360000,-0.0000077
54.47,562.595,0.0050000,0.0360000,0.0000251
54.52,563.095,0.0050000,0.0360000,0.0001439
54.57,563.595,0.0050000,0.0360000,0.0001393
54.62,564.095,0.0050000,0.0360000,-0.0000408
54.67,564.595,0.0050000,0.0360000,0.0001136
54.72,565.096,0.0050000,0.0360000,0.0001781
54.77,565.596,0.0050000,0.0360000,0.0000447
54.82,566.096,0.0050000,0.0360000,0.0000244
54.87,566.596,0.0050000,0.0360000,0.0002392
54.92,567.096,0.0050000,0.0360000,0.0000688
54.97,567.596,0.0050000,0.0360000,-0.0002231
55.02,568.096,0.0050000,0.0360000,0.0000860
55.07,568.596,0.0050000,0.0360000,-0.0000781
55.12,569.096,0.0050000,0.0360000,0.0001423
55.17,569.596,0.0050000,0.0370000,-0.0000346
55.22,570.096,0.0050000,0.0360000,0.0001286
55.27,570.597,0.0050000,0.0360000,0.0000501
55.32,571.097,0.0050000,0.0370000,0.0000026
55.37,571.597,0.0050000,0.0370000,0.0001418
55.42,572.097,0.0050000,0.0370000,0.0000702
55.47,572.597,0.0060000,0.0370000,0.0002632
55.52,573.097,0.0060000,0.0370000,0.0001762
55.57,573.597,0.0060000,0.0370000,0.0001296
55.62,574.097,0.0060000,0.0370000,-0.0000306
55.67,574.597,0.0060000,0.0370000,-0.0000612
55.72,575.097,0.0060000,0.0370000,-0.0001845
55.77,575.597,0.0060000,0.0370000,0.0000860
55.82,576.098,0.0060000,0.0370000,0.0003135
55.87,576.598,0.0060000,0.0370000,-0.0000573
55.92,577.098,0.0060000,0.0370000,-0.0000721
55.97,577.598,0.0060000,0.0370000,-0.0003383
56.02,578.098,0.0060000,0.0370000,0.0001514
56.07,578.598,0.0060000,0.0370000,0.0001104
56.12,579.098,0.0060000,0.0370000,0.0002664
56.17,579.598,0.0060000,0.0370000,-0.0001555
56.22,580.098,0.0060000,0.0370000,0.0002946
56.27,580.598,0.0060000,0.0370000,0.0002299
56.32,581.098,0.0060000,0.0370000,0.0001654
56.37,581.598,0.0060000,0.0370000,-0.0000196
56.42,582.099,0.0060000,0.0370000,0.0001332
56.47,582.599,0.0060000,0.0370000,0.0001725
56.52,583.099,0.0060000,0.0370000,0.0001281
56.57,583.599,0.0060000,0.0370000,0.0000557
56.62,584.099,0.0060000,0.0370000,0.0001980
56.67,584.599,0.0060000,0.0380000,0.0001236
56.72,585.099,0.0060000,0.0380000,0.0001463
56.77,585.599,0.0060000,0.0380000,-0.0001340
56.82,586.099,0.0060000,0.0380000,0.0000568
56.87,586.599,0.0060000,0.0380000,-0.0000712
56.92,587.099,0.0060000,0.0380000,0.0000055
56.97,587.6,0.0060000,0.0380000,0.0000342
57.02,588.1,0.0060000,0.0380000,-0.0000909
57.07,588.6,0.0060000,0.0380000,0.0000382
57.12,589.1,0.0060000,0.0380000,0.0000542
57.17,589.6,0.0060000,0.0380000,0.0003187
57.21,590,0.0060000,0.0380000,0.0001852