File: R/rHDPE_App/app/www/Output/TGA/Condensed_Data/Resin3_1_.csv
0.6800000,30,11.942,100.02,0.0144255
0.7500000,30.5001,11.942,100.025,0.0130944
0.8200000,31.0002,11.943,100.029,0.0033149
0.8900000,31.5003,11.943,100.032,0.0052581
0.9500000,32.0004,11.944,100.035,0.0043723
1.01,32.5004,11.944,100.037,0.0028492
1.07,33.0005,11.944,100.04,0.0027465
1.13,33.5006,11.944,100.042,0.0036639
1.18,34.0007,11.945,100.043,0.0053580
1.24,34.5008,11.945,100.045,0.0019248
1.3,35.0009,11.945,100.047,0.0036615
1.36,35.501,11.945,100.048,0.0024567
1.41,36.0011,11.945,100.049,0.0019326
1.47,36.5012,11.945,100.051,0.0041449
1.52,37.0013,11.946,100.052,0.0018090
1.58,37.5013,11.946,100.053,0.0018996
1.63,38.0014,11.946,100.054,0.0027354
1.68,38.5015,11.946,100.055,0.0022281
1.74,39.0016,11.946,100.056,0.0031063
1.79,39.5017,11.946,100.057,0.0017682
1.84,40.0018,11.946,100.058,0.0007346
1.9,40.5019,11.946,100.059,0.0023922
1.95,41.002,11.947,100.06,0.0015099
2.01,41.5021,11.947,100.061,0.0015072
2.06,42.0021,11.947,100.062,0.0025256
2.11,42.5022,11.947,100.063,0.0023260
2.16,43.0023,11.947,100.064,0.0023219
2.22,43.5024,11.947,100.065,0.0021735
2.27,44.0025,11.947,100.066,0.0021696
2.32,44.5026,11.947,100.067,0.0007701
2.38,45.0027,11.947,100.068,0.0026928
2.43,45.5028,11.948,100.069,0.0023996
2.48,46.0029,11.948,100.07,0.0023962
2.53,46.5029,11.948,100.071,0.0010042
2.59,47.003,11.948,100.072,0.0019110
2.64,47.5031,11.948,100.073,0.0026702
2.69,48.0032,11.948,100.074,0.0012376
2.74,48.5033,11.948,100.075,0.0016634
2.79,49.0034,11.948,100.076,0.0016608
2.84,49.5035,11.949,100.077,0.0019431
2.9,50.0036,11.949,100.078,0.0015145
2.95,50.5037,11.949,100.078,0.0018902
3,51.0038,11.949,100.079,0.0020779
3.05,51.5038,11.949,100.08,0.0010376
3.1,52.0039,11.949,100.081,0.0022147
3.15,52.504,11.949,100.082,0.0021171
3.21,53.0041,11.949,100.083,0.0024911
3.26,53.5042,11.949,100.084,0.0015022
3.31,54.0043,11.95,100.085,0.0018291
3.36,54.5044,11.95,100.086,0.0010304
3.41,55.0045,11.95,100.087,0.0016845
3.46,55.5046,11.95,100.087,0.0013559
3.51,56.0046,11.95,100.088,0.0022419
3.56,56.5047,11.95,100.089,0.0011206
3.61,57.0048,11.95,100.09,0.0018191
3.66,57.5049,11.95,100.091,0.0026563
3.71,58.005,11.95,100.092,0.0012108
3.77,58.5051,11.95,100.093,0.0016290
3.82,59.0052,11.951,100.093,0.0026051
3.87,59.5053,11.951,100.095,0.0024179
3.92,60.0054,11.951,100.095,0.0017659
3.97,60.5054,11.951,100.096,0.0022751
4.02,61.0055,11.951,100.098,0.0021347
4.07,61.5056,11.951,100.098,0.0006489
4.12,62.0057,11.951,100.099,0.0012964
4.17,62.5058,11.951,100.1,0.0022682
4.22,63.0059,11.951,100.101,0.0017586
4.27,63.506,11.952,100.102,0.0019405
4.32,64.0061,11.952,100.103,0.0021251
4.38,64.5062,11.952,100.104,0.0021236
4.43,65.0063,11.952,100.104,0.0009691
4.48,65.5063,11.952,100.105,0.0012449
4.53,66.0064,11.952,100.106,0.0025346
4.58,66.5065,11.952,100.107,0.0012906
4.63,67.0066,11.952,100.107,0.0012446
4.68,67.5067,11.952,100.108,0.0016122
4.73,68.0068,11.952,100.109,0.0022567
4.78,68.5069,11.952,100.11,0.0019334
4.83,69.007,11.953,100.111,0.0009669
4.88,69.5071,11.953,100.111,0.0012426
4.93,70.0071,11.953,100.112,0.0004599
4.98,70.5072,11.953,100.113,0.0013336
5.03,71.0073,11.953,100.114,0.0004139
5.08,71.5074,11.953,100.115,0.0011036
5.13,72.0075,11.953,100.115,0.0012418
5.18,72.5076,11.953,100.116,0.0021132
5.23,73.0077,11.953,100.117,0.0019293
5.28,73.5078,11.953,100.118,0.0012862
5.33,74.0079,11.954,100.118,0.0004592
5.38,74.5079,11.954,100.119,0.0011471
5.43,75.008,11.954,100.12,0.0013755
5.48,75.5081,11.954,100.12,0.0022010
5.53,76.0082,11.954,100.121,0.0017423
5.58,76.5083,11.954,100.122,0.0012384
5.63,77.0084,11.954,100.122,0.0020635
5.68,77.5085,11.954,100.123,0.0018335
5.73,78.0086,11.954,100.123,0.0013286
5.78,78.5087,11.954,100.124,0.0012377
5.83,79.0088,11.954,100.125,0.0015577
5.88,79.5088,11.954,100.125,0.0014193
5.93,80.0089,11.954,100.126,0.0007329
5.98,80.509,11.954,100.126,0.0002289
6.03,81.0091,11.954,100.126,-0.0000458
6.08,81.5092,11.954,100.126,0.0009156
6.13,82.0093,11.955,100.127,0.0007323
6.18,82.5094,11.955,100.127,0.0013281
6.23,83.0095,11.955,100.128,0.0011454
6.28,83.5096,11.955,100.129,0.0017406
6.33,84.0096,11.955,100.129,0.0015113
6.38,84.5097,11.955,100.13,0.0005492
6.43,85.0098,11.955,100.13,-0.0000915
6.48,85.5099,11.955,100.13,-0.0003663
6.53,86.01,11.955,100.131,0.0000916
6.58,86.5101,11.955,100.131,0.0010525
6.63,87.0102,11.955,100.131,0.0006867
6.68,87.5103,11.955,100.132,0.0013743
6.73,88.0104,11.955,100.132,0.0011452
6.78,88.5104,11.955,100.133,0.0008700
6.83,89.0105,11.955,100.133,0.0010985
6.88,89.5106,11.955,100.134,0.0013272
6.93,90.0107,11.955,100.134,0.0014191
6.98,90.5108,11.955,100.134,0.0005036
7.03,91.0109,11.955,100.135,0.0003662
7.08,91.511,11.955,100.135,0.0006406
7.13,92.0111,11.956,100.135,0.0010068
7.18,92.5112,11.956,100.135,0.0010529
7.23,93.0113,11.956,100.136,0.0003660
7.28,93.5113,11.956,100.136,0.0008689
7.33,94.0114,11.956,100.136,0.0006867
7.38,94.5115,11.956,100.137,0.0013733
7.43,95.0116,11.956,100.137,0.0000916
7.48,95.5117,11.956,100.137,0.0002291
7.53,96.0118,11.956,100.138,0.0006871
7.58,96.5119,11.956,100.138,0.0008244
7.63,97.012,11.956,100.138,0.0003207
7.68,97.5121,11.956,100.138,0.0002748
7.73,98.0121,11.956,100.139,0.0003205
7.78,98.5122,11.956,100.139,0.0005037
7.83,99.0123,11.956,100.139,0.0001832
7.88,99.5124,11.956,100.14,0.0009158
7.93,100.013,11.956,100.14,0.0008242
7.98,100.513,11.956,100.141,0.0006870
8.03,101.013,11.956,100.141,0.0008245
8.08,101.513,11.956,100.141,0.0005490
8.13,102.013,11.956,100.142,0.0009612
8.18,102.513,11.956,100.142,0.0013730
8.23,103.013,11.956,100.142,0.0010988
8.28,103.513,11.956,100.143,0.0005954
8.33,104.013,11.956,100.143,0.0003664
8.38,104.513,11.956,100.143,0.0005955
8.43,105.013,11.957,100.144,0.0005496
8.48,105.513,11.957,100.144,0.0009160
8.53,106.014,11.957,100.144,0.0005955
8.58,106.514,11.957,100.145,-0.0005494
8.63,107.014,11.957,100.145,0.0003663
8.68,107.514,11.957,100.145,0.0000458
8.73,108.014,11.957,100.145,0.0002748
8.78,108.514,11.957,100.145,-0.0000458
8.83,109.014,11.957,100.145,0.0001373
8.88,109.514,11.957,100.146,-0.0001374
8.93,110.014,11.957,100.146,0.0000458
8.98,110.514,11.957,100.146,-0.0000458
9.03,111.014,11.957,100.146,-0.0001374
9.08,111.515,11.957,100.146,-0.0003672
9.13,112.015,11.957,100.146,0.0004595
9.18,112.515,11.957,100.146,0.0005968
9.23,113.015,11.957,100.147,-0.0002294
9.28,113.515,11.957,100.147,0.0003209
9.33,114.015,11.957,100.147,0.0009161
9.38,114.515,11.957,100.148,-0.0002289
9.43,115.015,11.957,100.148,0.0000914
9.48,115.515,11.957,100.148,0.0007776
9.53,116.015,11.957,100.148,0.0004577
9.58,116.515,11.957,100.149,0.0005034
9.63,117.016,11.957,100.149,0.0003661
9.68,117.516,11.957,100.149,0.0010982
9.73,118.016,11.957,100.15,0.0014640
9.78,118.516,11.957,100.151,0.0023788
9.83,119.016,11.957,100.152,0.0026078
9.88,119.516,11.958,100.152,0.0022880
9.93,120.016,11.958,100.153,0.0018324
9.98,120.516,11.958,100.153,-0.0002287
10.03,121.016,11.958,100.153,0.0005491
10.08,121.516,11.958,100.154,0.0006411
10.13,122.016,11.958,100.154,-0.0003206
10.18,122.517,11.958,100.154,-0.0004126
10.23,123.017,11.958,100.154,-0.0001376
10.28,123.517,11.958,100.154,-0.0000918
10.33,124.017,11.958,100.154,0.0000459
10.38,124.517,11.958,100.154,0.0004131
10.43,125.017,11.958,100.154,0.0007343
10.48,125.517,11.958,100.155,-0.0003212
10.53,126.017,11.958,100.155,0.0002294
10.58,126.517,11.958,100.155,0.0004130
10.63,127.017,11.958,100.155,0.0005046
10.68,127.517,11.958,100.155,0.0001833
10.73,128.018,11.958,100.156,-0.0000000
10.78,128.518,11.958,100.156,0.0002293
10.83,129.018,11.958,100.156,0.0003211
10.88,129.518,11.958,100.156,0.0002294
10.93,130.018,11.958,100.156,-0.0000919
10.98,130.518,11.958,100.157,0.0003675
11.03,131.018,11.958,100.157,0.0008272
11.08,131.518,11.958,100.157,0.0012864
11.13,132.018,11.958,100.157,0.0010565
11.18,132.518,11.958,100.158,0.0008724
11.23,133.018,11.958,100.158,0.0007805
11.28,133.518,11.958,100.158,0.0013768
11.33,134.019,11.958,100.158,0.0006884
11.38,134.519,11.958,100.159,0.0006882
11.43,135.019,11.958,100.159,-0.0000917
11.48,135.519,11.958,100.159,0.0000000
11.53,136.019,11.958,100.159,0.0003666
11.58,136.519,11.958,100.159,0.0006414
11.64,137.019,11.958,100.159,0.0009613
11.69,137.519,11.958,100.159,0.0005034
11.73,138.019,11.958,100.159,0.0005948
11.78,138.519,11.958,100.159,0.0002286
11.83,139.019,11.958,100.159,0.0000457
11.88,139.52,11.958,100.159,-0.0005482
11.93,140.02,11.958,100.159,-0.0007305
11.98,140.52,11.958,100.159,-0.0001369
12.03,141.02,11.958,100.159,-0.0006381
12.08,141.52,11.958,100.158,-0.0009569
12.13,142.02,11.958,100.158,-0.0014580
12.18,142.52,11.958,100.157,-0.0009563
12.23,143.02,11.958,100.157,-0.0012730
12.28,143.52,11.958,100.156,-0.0010914
12.33,144.02,11.958,100.155,-0.0014065
12.38,144.52,11.958,100.155,-0.0021729
12.43,145.021,11.958,100.154,-0.0018982
12.48,145.521,11.958,100.152,-0.0021693
12.53,146.021,11.957,100.151,-0.0025773
12.58,146.521,11.957,100.15,-0.0022614
12.63,147.021,11.957,100.149,-0.0024905
12.68,147.521,11.957,100.147,-0.0026304
12.73,148.021,11.957,100.146,-0.0024080
12.78,148.521,11.957,100.145,-0.0017755
12.83,149.021,11.957,100.144,-0.0019150
12.88,149.521,11.956,100.143,-0.0022837
12.93,150.021,11.956,100.142,-0.0016021
12.98,150.522,11.956,100.141,-0.0013754
13.03,151.022,11.956,100.14,-0.0017452
13.08,151.522,11.956,100.139,-0.0022989
13.13,152.022,11.956,100.138,-0.0019792
13.18,152.522,11.956,100.137,-0.0019348
13.23,153.022,11.956,100.136,-0.0017062
13.28,153.522,11.956,100.135,-0.0022140
13.33,154.022,11.955,100.135,-0.0014306
13.38,154.522,11.955,100.134,-0.0014303
13.43,155.022,11.955,100.133,-0.0014293
13.48,155.522,11.955,100.132,-0.0012901
13.53,156.023,11.955,100.132,-0.0015668
13.58,156.523,11.955,100.131,-0.0010593
13.63,157.023,11.955,100.13,-0.0016570
13.68,157.523,11.955,100.13,-0.0017025
13.73,158.023,11.955,100.129,-0.0017946
13.78,158.523,11.955,100.129,-0.0012877
13.83,159.023,11.955,100.128,-0.0012408
13.88,159.523,11.955,100.127,-0.0012873
13.93,160.023,11.955,100.127,-0.0012412
13.98,160.523,11.954,100.126,-0.0009187
14.03,161.023,11.954,100.126,-0.0005970
14.08,161.523,11.954,100.125,-0.0005510
14.13,162.024,11.954,100.124,-0.0010563
14.18,162.524,11.954,100.124,-0.0004136
14.23,163.024,11.954,100.124,-0.0002755
14.28,163.524,11.954,100.123,-0.0014227
14.34,164.024,11.954,100.123,-0.0017894
14.39,164.524,11.954,100.122,-0.0023388
14.44,165.024,11.954,100.121,-0.0017423
14.49,165.524,11.954,100.121,-0.0012382
14.54,166.024,11.954,100.12,-0.0013303
14.59,166.524,11.954,100.119,-0.0013764
14.64,167.024,11.954,100.118,-0.0016521
14.69,167.525,11.953,100.118,-0.0015143
14.74,168.025,11.953,100.117,-0.0009173
14.79,168.525,11.953,100.116,-0.0010085
14.84,169.025,11.953,100.116,-0.0015122
14.89,169.525,11.953,100.115,-0.0010995
14.94,170.025,11.953,100.114,-0.0012369
14.99,170.525,11.953,100.114,-0.0012836
15.04,171.025,11.953,100.113,-0.0021546
15.09,171.525,11.953,100.112,-0.0015589
15.14,172.025,11.953,100.112,-0.0011007
15.19,172.525,11.953,100.111,-0.0014668
15.24,173.026,11.953,100.11,-0.0015128
15.29,173.526,11.952,100.11,-0.0016949
15.34,174.026,11.952,100.109,-0.0016032
15.39,174.526,11.952,100.108,-0.0009163
15.44,175.026,11.952,100.108,-0.0015577
15.49,175.526,11.952,100.107,-0.0010536
15.54,176.026,11.952,100.106,-0.0014659
15.59,176.526,11.952,100.105,-0.0011911
15.64,177.026,11.952,100.105,-0.0015119
15.69,177.526,11.952,100.104,-0.0017865
15.74,178.026,11.952,100.103,-0.0013736
15.79,178.527,11.952,100.103,-0.0013275
15.84,179.027,11.952,100.102,-0.0017850
15.89,179.527,11.951,100.101,-0.0015568
15.94,180.027,11.951,100.101,-0.0018780
15.99,180.527,11.951,100.1,-0.0017878
16.04,181.027,11.951,100.099,-0.0016506
16.09,181.527,11.951,100.099,-0.0015128
16.14,182.027,11.951,100.098,-0.0014656
16.19,182.527,11.951,100.097,-0.0015575
16.24,183.027,11.951,100.096,-0.0014652
16.29,183.527,11.951,100.095,-0.0015563
16.34,184.028,11.951,100.095,-0.0014194
16.39,184.528,11.951,100.094,-0.0015568
16.44,185.028,11.95,100.093,-0.0012819
16.49,185.528,11.95,100.092,-0.0016018
16.54,186.028,11.95,100.092,-0.0010986
16.59,186.528,11.95,100.091,-0.0010986
16.64,187.028,11.95,100.09,-0.0011442
16.69,187.528,11.95,100.089,-0.0010986
16.74,188.028,11.95,100.089,-0.0010073
16.79,188.528,11.95,100.088,-0.0010073
16.84,189.028,11.95,100.087,-0.0017399
16.89,189.528,11.95,100.086,-0.0020152
16.94,190.029,11.95,100.086,-0.0019692
16.99,190.529,11.949,100.085,-0.0017862
17.04,191.029,11.949,100.084,-0.0015110
17.09,191.529,11.949,100.083,-0.0012819
17.14,192.029,11.949,100.082,-0.0010070
17.19,192.529,11.949,100.081,-0.0015112
17.24,193.029,11.949,100.081,-0.0013736
17.29,193.529,11.949,100.08,-0.0011445
17.34,194.029,11.949,100.079,-0.0018315
17.39,194.529,11.949,100.078,-0.0012366
17.44,195.029,11.949,100.078,-0.0008702
17.49,195.53,11.949,100.077,-0.0016488
17.54,196.03,11.948,100.076,-0.0017866
17.59,196.53,11.948,100.075,-0.0014662
17.64,197.03,11.948,100.075,-0.0009621
17.69,197.53,11.948,100.074,-0.0014669
17.74,198.03,11.948,100.073,-0.0015130
17.79,198.53,11.948,100.072,-0.0016971
17.84,199.03,11.948,100.071,-0.0016048
17.89,199.53,11.948,100.07,-0.0012831
17.94,200.03,11.948,100.07,-0.0015578
17.99,200.53,11.948,100.069,-0.0016494
18.04,201.031,11.947,100.068,-0.0016496
18.09,201.531,11.947,100.067,-0.0010993
18.14,202.031,11.947,100.066,-0.0014202
18.19,202.531,11.947,100.066,-0.0018325
18.24,203.031,11.947,100.065,-0.0010996
18.29,203.531,11.947,100.064,-0.0011452
18.34,204.031,11.947,100.063,-0.0012365
18.39,204.531,11.947,100.062,-0.0015114
18.44,205.031,11.947,100.062,-0.0012366
18.49,205.531,11.947,100.061,-0.0015114
18.54,206.031,11.947,100.06,-0.0018328
18.59,206.532,11.946,100.059,-0.0014212
18.64,207.032,11.946,100.059,-0.0016499
18.69,207.532,11.946,100.058,-0.0013296
18.74,208.032,11.946,100.057,-0.0020165
18.79,208.532,11.946,100.056,-0.0018790
18.84,209.032,11.946,100.055,-0.0016503
18.89,209.532,11.946,100.055,-0.0017874
18.94,210.032,11.946,100.054,-0.0016969
18.99,210.532,11.946,100.053,-0.0014214
19.04,211.032,11.946,100.052,-0.0020178
19.09,211.532,11.946,100.051,-0.0021546
19.14,212.033,11.945,100.051,-0.0019254
19.19,212.533,11.945,100.05,-0.0018799
19.24,213.033,11.945,100.049,-0.0015128
19.29,213.533,11.945,100.048,-0.0019256
19.34,214.033,11.945,100.048,-0.0016040
19.39,214.533,11.945,100.047,-0.0016499
19.44,215.033,11.945,100.046,-0.0017874
19.49,215.533,11.945,100.045,-0.0014201
19.54,216.033,11.945,100.044,-0.0011907
19.59,216.533,11.945,100.044,-0.0014186
19.64,217.033,11.944,100.043,-0.0016941
19.69,217.533,11.944,100.042,-0.0014655
19.74,218.034,11.944,100.041,-0.0014203
19.79,218.534,11.944,100.04,-0.0017873
19.84,219.034,11.944,100.039,-0.0019257
19.89,219.534,11.944,100.038,-0.0018807
19.94,220.034,11.944,100.037,-0.0018349
19.99,220.534,11.944,100.037,-0.0017883
20.04,221.034,11.944,100.036,-0.0015131
20.09,221.534,11.944,100.035,-0.0010999
20.14,222.034,11.943,100.034,-0.0015117
20.19,222.534,11.943,100.033,-0.0013745
20.24,223.034,11.943,100.033,-0.0016040
20.29,223.535,11.943,100.032,-0.0015575
20.34,224.035,11.943,100.031,-0.0021998
20.39,224.535,11.943,100.03,-0.0018337
20.44,225.035,11.943,100.029,-0.0016496
20.49,225.535,11.943,100.029,-0.0016499
20.54,226.035,11.943,100.028,-0.0015578
20.59,226.535,11.943,100.027,-0.0016484
20.64,227.035,11.942,100.026,-0.0014199
20.69,227.535,11.942,100.025,-0.0010991
20.74,228.035,11.942,100.024,-0.0010076
20.79,228.535,11.942,100.024,-0.0016484
20.84,229.036,11.942,100.023,-0.0017874
20.89,229.536,11.942,100.022,-0.0017409
20.94,230.036,11.942,100.021,-0.0015124
20.99,230.536,11.942,100.02,-0.0020619
21.04,231.036,11.942,100.02,-0.0019698
21.09,231.536,11.942,100.019,-0.0013743
21.14,232.036,11.942,100.018,-0.0016032
21.19,232.536,11.941,100.017,-0.0019243
21.24,233.036,11.941,100.016,-0.0018320
21.29,233.536,11.941,100.015,-0.0014197
21.34,234.036,11.941,100.015,-0.0015578
21.39,234.537,11.941,100.014,-0.0016952
21.44,235.037,11.941,100.013,-0.0015124
21.49,235.537,11.941,100.012,-0.0020161
21.54,236.037,11.941,100.011,-0.0015589
21.59,236.537,11.941,100.01,-0.0022460
21.64,237.037,11.941,100.009,-0.0017877
21.69,237.537,11.94,100.009,-0.0016033
21.74,238.037,11.94,100.008,-0.0012366
21.79,238.537,11.94,100.007,-0.0015568
21.84,239.037,11.94,100.006,-0.0018787
21.89,239.537,11.94,100.006,-0.0018787
21.94,240.038,11.94,100.005,-0.0013749
21.99,240.538,11.94,100.004,-0.0012377
22.04,241.038,11.94,100.003,-0.0018799
22.09,241.538,11.94,100.002,-0.0019714
22.14,242.038,11.94,100.001,-0.0017880
22.19,242.538,11.939,100,-0.0013753
22.24,243.038,11.939,99.999,-0.0020634
22.29,243.538,11.939,99.999,-0.0020641
22.34,244.038,11.939,99.998,-0.0016972
22.39,244.538,11.939,99.997,-0.0016972
22.44,245.038,11.939,99.996,-0.0016050
22.49,245.538,11.939,99.995,-0.0015128
22.54,246.039,11.939,99.995,-0.0018332
22.59,246.539,11.939,99.994,-0.0014668
22.64,247.039,11.939,99.993,-0.0015124
22.69,247.539,11.938,99.992,-0.0009164
22.74,248.039,11.938,99.991,-0.0011450
22.79,248.539,11.938,99.991,-0.0016033
22.84,249.039,11.938,99.99,-0.0024267
22.89,249.539,11.938,99.989,-0.0017857
22.94,250.039,11.938,99.988,-0.0019239
22.99,250.539,11.938,99.987,-0.0020165
23.04,251.039,11.938,99.987,-0.0014665
23.09,251.54,11.938,99.986,-0.0018337
23.14,252.04,11.938,99.985,-0.0014211
23.19,252.54,11.937,99.984,-0.0012836
23.24,253.04,11.937,99.983,-0.0020170
23.3,253.54,11.937,99.982,-0.0017416
23.35,254.04,11.937,99.982,-0.0017874
23.4,254.54,11.937,99.981,-0.0015118
23.45,255.04,11.937,99.98,-0.0015575
23.5,255.54,11.937,99.979,-0.0011452
23.55,256.04,11.937,99.978,-0.0013741
23.6,256.54,11.937,99.978,-0.0012821
23.65,257.041,11.937,99.977,-0.0010077
23.7,257.541,11.937,99.976,-0.0013736
23.75,258.041,11.936,99.975,-0.0016478
23.8,258.541,11.936,99.974,-0.0019217
23.85,259.041,11.936,99.974,-0.0018315
23.9,259.541,11.936,99.973,-0.0019241
23.95,260.041,11.936,99.972,-0.0020165
24,260.541,11.936,99.971,-0.0020642
24.05,261.041,11.936,99.97,-0.0020630
24.1,261.541,11.936,99.97,-0.0019714
24.15,262.041,11.936,99.969,-0.0014666
24.2,262.542,11.936,99.968,-0.0015123
24.25,263.042,11.935,99.967,-0.0017883
24.3,263.542,11.935,99.966,-0.0014679
24.35,264.042,11.935,99.965,-0.0014679
24.4,264.542,11.935,99.965,-0.0017422
24.45,265.042,11.935,99.964,-0.0013754
24.5,265.542,11.935,99.963,-0.0012837
24.55,266.042,11.935,99.962,-0.0013288
24.6,266.542,11.935,99.961,-0.0019689
24.65,267.042,11.935,99.961,-0.0009615
24.7,267.542,11.935,99.96,-0.0018304
24.75,268.043,11.934,99.959,-0.0015101
24.8,268.543,11.934,99.958,-0.0019223
24.85,269.043,11.934,99.957,-0.0015559
24.9,269.543,11.934,99.957,-0.0014652
24.95,270.043,11.934,99.956,-0.0016951
25,270.543,11.934,99.955,-0.0018790
25.05,271.043,11.934,99.954,-0.0021101
25.1,271.543,11.934,99.953,-0.0020653
25.15,272.043,11.934,99.952,-0.0012851
25.2,272.543,11.934,99.952,-0.0015606
25.25,273.043,11.933,99.951,-0.0016514
25.3,273.543,11.933,99.95,-0.0016043
25.35,274.044,11.933,99.949,-0.0017406
25.4,274.544,11.933,99.948,-0.0016941
25.45,275.044,11.933,99.947,-0.0017873
25.5,275.544,11.933,99.946,-0.0016493
25.55,276.044,11.933,99.946,-0.0015587
25.6,276.544,11.933,99.945,-0.0011461
25.65,277.044,11.933,99.944,-0.0016941
25.7,277.544,11.933,99.943,-0.0016026
25.75,278.044,11.932,99.942,-0.0012821
25.8,278.544,11.932,99.941,-0.0015568
25.85,279.044,11.932,99.94,-0.0015559
25.9,279.545,11.932,99.94,-0.0015559
25.95,280.045,11.932,99.939,-0.0016017
26,280.545,11.932,99.938,-0.0015110
26.05,281.045,11.932,99.937,-0.0017867
26.1,281.545,11.932,99.936,-0.0018773
26.15,282.045,11.932,99.935,-0.0015560
26.2,282.545,11.931,99.934,-0.0023801
26.25,283.045,11.931,99.933,-0.0016926
26.3,283.545,11.931,99.932,-0.0018756
26.35,284.045,11.931,99.931,-0.0018763
26.4,284.545,11.931,99.93,-0.0021055
26.45,285.046,11.931,99.929,-0.0017844
26.5,285.546,11.931,99.928,-0.0021493
26.55,286.046,11.931,99.927,-0.0021501
26.6,286.546,11.931,99.926,-0.0021031
26.65,287.046,11.93,99.925,-0.0018750
26.7,287.546,11.93,99.924,-0.0021062
26.75,288.046,11.93,99.923,-0.0021990
26.8,288.546,11.93,99.922,-0.0021520
26.85,289.046,11.93,99.921,-0.0025183
26.9,289.546,11.93,99.919,-0.0024276
26.95,290.046,11.93,99.918,-0.0030248
27,290.547,11.929,99.917,-0.0022449
27.05,291.047,11.929,99.916,-0.0022928
27.1,291.547,11.929,99.915,-0.0022915
27.15,292.047,11.929,99.914,-0.0020619
27.2,292.547,11.929,99.913,-0.0018790
27.25,293.047,11.929,99.912,-0.0021536
27.3,293.547,11.929,99.91,-0.0017867
27.35,294.047,11.929,99.909,-0.0019231
27.4,294.547,11.928,99.908,-0.0021062
27.45,295.047,11.928,99.907,-0.0019231
27.5,295.547,11.928,99.906,-0.0017399
27.55,296.048,11.928,99.905,-0.0019231
27.6,296.548,11.928,99.904,-0.0025641
27.65,297.048,11.928,99.902,-0.0023818
27.7,297.548,11.928,99.901,-0.0022449
27.75,298.048,11.927,99.9,-0.0021978
27.8,298.548,11.927,99.899,-0.0022894
27.85,299.048,11.927,99.898,-0.0024707
27.9,299.548,11.927,99.897,-0.0022873
27.95,300.048,11.927,99.895,-0.0024255
28,300.548,11.927,99.894,-0.0027015
28.05,301.048,11.927,99.893,-0.0022881
28.1,301.548,11.926,99.892,-0.0025632
28.15,302.049,11.926,99.891,-0.0027916
28.2,302.549,11.926,99.889,-0.0026075
28.25,303.049,11.926,99.888,-0.0025641
28.3,303.549,11.926,99.887,-0.0027030
28.35,304.049,11.926,99.886,-0.0025669
28.4,304.549,11.926,99.885,-0.0021994
28.45,305.049,11.925,99.883,-0.0024738
28.5,305.549,11.925,99.882,-0.0024725
28.55,306.049,11.925,99.881,-0.0024716
28.6,306.549,11.925,99.88,-0.0023339
28.65,307.049,11.925,99.878,-0.0022416
28.7,307.55,11.925,99.877,-0.0025618
28.75,308.05,11.925,99.876,-0.0026557
28.8,308.55,11.924,99.875,-0.0021985
28.85,309.05,11.924,99.873,-0.0025641
28.9,309.55,11.924,99.872,-0.0031593
28.95,310.05,11.924,99.871,-0.0024259
29,310.55,11.924,99.869,-0.0031582
29.05,311.05,11.924,99.868,-0.0027915
29.1,311.55,11.923,99.867,-0.0027005
29.15,312.05,11.923,99.865,-0.0032967
29.2,312.55,11.923,99.864,-0.0030220
29.25,313.051,11.923,99.862,-0.0025183
29.3,313.551,11.923,99.861,-0.0024725
29.35,314.051,11.923,99.86,-0.0021062
29.4,314.551,11.922,99.858,-0.0023810
29.45,315.051,11.922,99.857,-0.0027915
29.5,315.551,11.922,99.856,-0.0025183
29.55,316.051,11.922,99.854,-0.0021520
29.6,316.551,11.922,99.853,-0.0025183
29.65,317.051,11.922,99.852,-0.0026099
29.7,317.551,11.922,99.85,-0.0027920
29.75,318.051,11.921,99.849,-0.0027473
29.8,318.552,11.921,99.848,-0.0027015
29.85,319.052,11.921,99.846,-0.0025197
29.9,319.552,11.921,99.845,-0.0029326
29.95,320.052,11.921,99.844,-0.0032998
30,320.552,11.921,99.842,-0.0027024
30.05,321.052,11.92,99.841,-0.0027015
30.1,321.552,11.92,99.839,-0.0033425
30.15,322.052,11.92,99.838,-0.0035256
30.2,322.552,11.92,99.836,-0.0032491
30.25,323.052,11.92,99.835,-0.0034799
30.3,323.552,11.92,99.834,-0.0032521
30.35,324.053,11.919,99.832,-0.0028863
30.4,324.553,11.919,99.831,-0.0030695
30.45,325.053,11.919,99.829,-0.0028414
30.5,325.553,11.919,99.828,-0.0027483
30.55,326.053,11.919,99.826,-0.0026572
30.6,326.553,11.918,99.825,-0.0025192
30.65,327.053,11.918,99.823,-0.0026572
30.7,327.553,11.918,99.822,-0.0026557
30.75,328.053,11.918,99.82,-0.0028388
30.8,328.553,11.918,99.819,-0.0034799
30.85,329.053,11.918,99.817,-0.0043933
30.9,329.553,11.917,99.815,-0.0034818
30.95,330.054,11.917,99.814,-0.0035269
31,330.554,11.917,99.812,-0.0033896
31.05,331.054,11.917,99.811,-0.0031576
31.1,331.554,11.917,99.809,-0.0037975
31.15,332.054,11.916,99.808,-0.0034760
31.2,332.554,11.916,99.806,-0.0030661
31.25,333.054,11.916,99.805,-0.0036583
31.3,333.554,11.916,99.803,-0.0033845
31.35,334.054,11.916,99.801,-0.0032474
31.4,334.554,11.915,99.8,-0.0033851
31.45,335.054,11.915,99.798,-0.0035688
31.5,335.555,11.915,99.797,-0.0034799
31.55,336.055,11.915,99.795,-0.0032980
31.6,336.555,11.915,99.794,-0.0032991
31.65,337.055,11.915,99.792,-0.0032985
31.7,337.555,11.914,99.79,-0.0034799
31.75,338.055,11.914,99.789,-0.0037546
31.8,338.555,11.914,99.787,-0.0032081
31.85,339.055,11.914,99.786,-0.0029762
31.9,339.555,11.914,99.784,-0.0035237
31.95,340.055,11.913,99.782,-0.0033858
32,340.555,11.913,99.781,-0.0033406
32.05,341.056,11.913,99.779,-0.0038462
32.1,341.556,11.913,99.777,-0.0034341
32.15,342.056,11.913,99.775,-0.0034353
32.2,342.556,11.912,99.773,-0.0032527
32.25,343.056,11.912,99.772,-0.0031164
32.3,343.556,11.912,99.77,-0.0038039
32.35,344.056,11.912,99.768,-0.0034379
32.4,344.556,11.911,99.766,-0.0032070
32.45,345.056,11.911,99.764,-0.0033456
32.5,345.556,11.911,99.763,-0.0027939
32.55,346.056,11.911,99.761,-0.0030678
32.6,346.557,11.911,99.759,-0.0034341
32.65,347.057,11.91,99.757,-0.0030220
32.7,347.557,11.91,99.755,-0.0033407
32.75,348.057,11.91,99.753,-0.0037088
32.8,348.557,11.91,99.752,-0.0037546
32.85,349.057,11.91,99.75,-0.0039835
32.9,349.557,11.909,99.748,-0.0038462
32.95,350.057,11.909,99.746,-0.0036610
33,350.557,11.909,99.744,-0.0038441
33.05,351.057,11.909,99.742,-0.0038905
33.1,351.557,11.908,99.74,-0.0037525
33.15,352.058,11.908,99.738,-0.0037074
33.2,352.558,11.908,99.736,-0.0044390
33.25,353.058,11.908,99.734,-0.0043514
33.3,353.558,11.907,99.732,-0.0048516
33.35,354.058,11.907,99.73,-0.0045738
33.4,354.558,11.907,99.728,-0.0045721
33.45,355.058,11.907,99.726,-0.0040235
33.5,355.558,11.906,99.724,-0.0045745
33.55,356.058,11.906,99.722,-0.0040751
33.6,356.558,11.906,99.72,-0.0046738
33.65,357.058,11.906,99.718,-0.0042636
33.7,357.558,11.905,99.716,-0.0040330
33.75,358.059,11.905,99.713,-0.0044430
33.8,358.559,11.905,99.711,-0.0043064
33.85,359.059,11.905,99.709,-0.0044446
33.9,359.559,11.904,99.707,-0.0042154
33.95,360.059,11.904,99.705,-0.0048077
34,360.559,11.904,99.702,-0.0044848
34.05,361.059,11.904,99.7,-0.0049451
34.1,361.559,11.903,99.698,-0.0048966
34.15,362.059,11.903,99.695,-0.0048993
34.2,362.559,11.903,99.693,-0.0046703
34.25,363.059,11.902,99.691,-0.0049908
34.3,363.56,11.902,99.688,-0.0051235
34.35,364.06,11.902,99.686,-0.0052598
34.4,364.56,11.902,99.683,-0.0053074
34.45,365.06,11.901,99.681,-0.0058150
34.5,365.56,11.901,99.678,-0.0053182
34.55,366.06,11.901,99.675,-0.0053600
34.6,366.56,11.9,99.673,-0.0054069
34.65,367.06,11.9,99.67,-0.0052169
34.7,367.56,11.9,99.668,-0.0054438
34.75,368.06,11.899,99.665,-0.0061322
34.8,368.56,11.899,99.662,-0.0058117
34.85,369.061,11.899,99.659,-0.0054388
34.9,369.561,11.898,99.657,-0.0058044
34.95,370.061,11.898,99.654,-0.0061267
35,370.561,11.898,99.651,-0.0057618
35.05,371.061,11.897,99.648,-0.0064536
35.1,371.561,11.897,99.645,-0.0060015
35.15,372.061,11.897,99.642,-0.0064560
35.2,372.561,11.896,99.639,-0.0063587
35.25,373.061,11.896,99.636,-0.0070971
35.3,373.561,11.895,99.632,-0.0068643
35.35,374.061,11.895,99.629,-0.0071454
35.4,374.562,11.895,99.626,-0.0070552
35.45,375.062,11.894,99.622,-0.0073394
35.5,375.562,11.894,99.619,-0.0070145
35.55,376.062,11.893,99.615,-0.0074771
35.6,376.562,11.893,99.611,-0.0075688
35.65,377.062,11.893,99.607,-0.0079313
35.7,377.562,11.892,99.604,-0.0077882
35.75,378.062,11.892,99.6,-0.0080160
35.8,378.562,11.891,99.596,-0.0075481
35.85,379.062,11.891,99.592,-0.0077281
35.9,379.562,11.89,99.588,-0.0076354
35.95,380.063,11.89,99.584,-0.0085623
36,380.563,11.889,99.579,-0.0084311
36.05,381.063,11.889,99.575,-0.0084327
36.1,381.563,11.888,99.57,-0.0094322
36.15,382.063,11.888,99.566,-0.0089253
36.2,382.563,11.887,99.561,-0.0094607
36.25,383.063,11.886,99.556,-0.0093658
36.3,383.563,11.886,99.551,-0.0102377
36.35,384.063,11.885,99.546,-0.0106490
36.4,384.563,11.885,99.541,-0.0104662
36.45,385.063,11.884,99.536,-0.0105995
36.5,385.563,11.883,99.53,-0.0106889
36.55,386.064,11.883,99.525,-0.0113242
36.6,386.564,11.882,99.519,-0.0112951
36.65,387.064,11.881,99.513,-0.0119744
36.7,387.564,11.881,99.507,-0.0121639
36.75,388.064,11.88,99.501,-0.0118416
36.8,388.564,11.879,99.495,-0.0124818
36.85,389.064,11.878,99.489,-0.0125846
36.9,389.564,11.878,99.482,-0.0126691
36.95,390.064,11.877,99.475,-0.0134443
37,390.564,11.876,99.468,-0.0142726
37.05,391.064,11.875,99.461,-0.0150128
37.1,391.565,11.874,99.454,-0.0146169
37.15,392.065,11.873,99.446,-0.0159886
37.2,392.565,11.872,99.438,-0.0160802
37.25,393.065,11.871,99.43,-0.0159174
37.3,393.565,11.87,99.422,-0.0160314
37.35,394.065,11.869,99.414,-0.0167582
37.4,394.565,11.868,99.406,-0.0173471
37.45,395.065,11.867,99.397,-0.0172161
37.5,395.565,11.866,99.388,-0.0175792
37.55,396.065,11.865,99.378,-0.0186252
37.6,396.565,11.864,99.369,-0.0189033
37.65,397.066,11.863,99.36,-0.0189560
37.7,397.566,11.862,99.35,-0.0200475
37.75,398.066,11.861,99.34,-0.0199176
37.8,398.566,11.859,99.329,-0.0209249
37.85,399.066,11.858,99.319,-0.0209707
37.9,399.566,11.857,99.308,-0.0221989
37.95,400.066,11.855,99.297,-0.0221693
38,400.566,11.854,99.285,-0.0237397
38.05,401.066,11.853,99.273,-0.0235106
38.1,401.566,11.851,99.261,-0.0239230
38.15,402.066,11.85,99.249,-0.0239011
38.2,402.567,11.848,99.237,-0.0250320
38.25,403.067,11.847,99.224,-0.0261113
38.3,403.567,11.845,99.211,-0.0261207
38.35,404.067,11.844,99.197,-0.0273660
38.4,404.567,11.842,99.184,-0.0279608
38.45,405.067,11.84,99.17,-0.0279608
38.5,405.567,11.839,99.155,-0.0292125
38.55,406.067,11.837,99.14,-0.0297913
38.6,406.567,11.835,99.125,-0.0304029
38.65,407.067,11.833,99.11,-0.0311699
38.7,407.567,11.831,99.094,-0.0321309
38.75,408.068,11.829,99.078,-0.0328176
38.8,408.568,11.827,99.061,-0.0331837
38.85,409.068,11.825,99.044,-0.0344922
38.9,409.568,11.823,99.027,-0.0349091
38.95,410.068,11.821,99.009,-0.0363225
39,410.568,11.819,98.99,-0.0377084
39.05,411.068,11.816,98.97,-0.0402037
39.1,411.568,11.814,98.95,-0.0418339
39.15,412.068,11.812,98.929,-0.0429945
39.2,412.568,11.809,98.907,-0.0447493
39.25,413.068,11.806,98.884,-0.0454670
39.3,413.568,11.803,98.861,-0.0469927
39.35,414.069,11.801,98.837,-0.0483634
39.4,414.569,11.798,98.813,-0.0495677
39.45,415.069,11.795,98.788,-0.0505235
39.5,415.569,11.792,98.763,-0.0519189
39.55,416.069,11.789,98.737,-0.0531456
39.6,416.569,11.785,98.71,-0.0549451
39.65,417.069,11.782,98.682,-0.0553571
39.7,417.569,11.779,98.654,-0.0576430
39.75,418.069,11.775,98.625,-0.0585028
39.8,418.569,11.772,98.595,-0.0604491
39.85,419.069,11.768,98.565,-0.0617555
39.9,419.57,11.764,98.534,-0.0641941
39.95,420.07,11.76,98.501,-0.0650860
40,420.57,11.757,98.468,-0.0669471
40.05,421.07,11.752,98.434,-0.0690050
40.1,421.57,11.748,98.399,-0.0718664
40.15,422.07,11.744,98.362,-0.0733974
40.2,422.57,11.739,98.325,-0.0761487
40.25,423.07,11.735,98.286,-0.0785256
40.3,423.57,11.73,98.246,-0.0811515
40.35,424.07,11.725,98.205,-0.0829215
40.4,424.57,11.72,98.163,-0.0888509
40.45,425.071,11.715,98.118,-0.0950183
40.5,425.571,11.709,98.072,-0.0922689
40.55,426.071,11.703,98.023,-0.1033320
40.6,426.571,11.697,97.969,-0.1143810
40.65,427.071,11.69,97.912,-0.1227340
40.7,427.571,11.683,97.852,-0.1204210
40.75,428.071,11.675,97.789,-0.1338370
40.8,428.571,11.667,97.722,-0.1358360
40.85,429.071,11.659,97.654,-0.1438660
40.9,429.571,11.651,97.582,-0.1476190
40.95,430.071,11.641,97.504,-0.1658120
41,430.572,11.632,97.427,-0.1664520
41.05,431.072,11.622,97.343,-0.1763010
41.1,431.572,11.612,97.258,-0.1721900
41.15,432.072,11.602,97.17,-0.1869070
41.2,432.572,11.59,97.077,-0.1850090
41.25,433.072,11.579,96.985,-0.1936930
41.3,433.572,11.568,96.891,-0.2017370
41.35,434.072,11.556,96.79,-0.1981240
41.4,434.572,11.544,96.689,-0.2060440
41.45,435.072,11.531,96.583,-0.2178110
41.5,435.572,11.518,96.469,-0.2567470
41.55,436.073,11.503,96.341,-0.2626300
41.6,436.573,11.488,96.217,-0.2533780
41.65,437.073,11.473,96.093,-0.2481680
41.7,437.573,11.458,95.968,-0.2524340
41.75,438.073,11.442,95.836,-0.2789210
41.8,438.573,11.426,95.699,-0.2794970
41.85,439.073,11.408,95.552,-0.3051980
41.9,439.573,11.391,95.407,-0.2988050
41.95,440.073,11.373,95.252,-0.3228180
42,440.573,11.354,95.095,-0.3253510
42.05,441.073,11.334,94.932,-0.3371210
42.1,441.573,11.314,94.762,-0.3636450
42.15,442.074,11.292,94.576,-0.3555560
42.2,442.574,11.27,94.397,-0.3689390
42.25,443.074,11.249,94.217,-0.3667860
42.3,443.574,11.227,94.032,-0.3845610
42.35,444.074,11.204,93.84,-0.4057540
42.4,444.574,11.179,93.635,-0.4184950
42.45,445.074,11.154,93.425,-0.4306240
42.5,445.574,11.128,93.204,-0.4418340
42.55,446.074,11.101,92.976,-0.4831960
42.6,446.574,11.072,92.735,-0.4903460
42.65,447.074,11.042,92.481,-0.5258560
42.7,447.575,11.01,92.219,-0.5492870
42.75,448.075,10.978,91.95,-0.5209140
42.8,448.575,10.946,91.677,-0.5425960
42.85,449.075,10.912,91.395,-0.5918140
42.9,449.575,10.876,91.094,-0.5854190
42.95,450.075,10.84,90.79,-0.6293890
43,450.575,10.801,90.469,-0.6297080
43.05,451.075,10.762,90.14,-0.6348110
43.1,451.575,10.721,89.792,-0.7254680
43.15,452.075,10.677,89.426,-0.7000670
43.2,452.575,10.631,89.045,-0.7521060
43.25,453.076,10.585,88.656,-0.7697340
43.3,453.576,10.537,88.251,-0.7982160
43.35,454.076,10.485,87.815,-0.8715920
43.4,454.576,10.431,87.365,-0.8713840
43.45,455.076,10.375,86.894,-0.9331970
43.5,455.576,10.317,86.41,-0.9371860
43.55,456.076,10.257,85.905,-1.0025
43.6,456.576,10.192,85.363,-1.12499
43.65,457.076,10.125,84.807,-1.12218
43.7,457.576,10.057,84.234,-1.2259
43.75,458.076,9.985,83.634,-1.21795
43.8,458.577,9.91,83.003,-1.27706
43.85,459.077,9.831,82.338,-1.33887
43.9,459.577,9.75,81.666,-1.38653
43.95,460.077,9.666,80.962,-1.49408
44,460.577,9.577,80.212,-1.5467
44.05,461.077,9.485,79.442,-1.56078
44.1,461.577,9.39,78.646,-1.69542
44.15,462.077,9.29,77.81,-1.76422
44.2,462.577,9.188,76.958,-1.71347
44.25,463.077,9.081,76.062,-1.94448
44.3,463.577,8.968,75.116,-1.95501
44.35,464.078,8.854,74.156,-1.95964
44.4,464.578,8.734,73.153,-2.08176
44.45,465.078,8.609,72.102,-2.19144
44.5,465.578,8.482,71.04,-2.20806
44.56,466.078,8.344,69.886,-2.19454
44.61,466.578,8.206,68.731,-2.26914
44.66,467.078,8.063,67.531,-2.42484
44.7,467.578,7.92,66.335,-2.46614
44.75,468.078,7.77,65.079,-2.52282
44.8,468.578,7.614,63.768,-2.68584
44.85,469.078,7.453,62.423,-2.72193
44.9,469.578,7.287,61.034,-2.79922
44.96,470.079,7.112,59.568,-2.84667
45.01,470.579,6.934,58.078,-2.96883
45.06,471.079,6.755,56.58,-3.07086
45.11,471.579,6.569,55.02,-3.11023
45.16,472.079,6.379,53.427,-3.16481
45.21,472.579,6.185,51.803,-3.22601
45.26,473.079,5.986,50.141,-3.34842
45.31,473.579,5.782,48.428,-3.43879
45.36,474.079,5.576,46.706,-3.45332
45.4,474.579,5.374,45.008,-3.53523
45.45,475.079,5.159,43.21,-3.56201
45.5,475.58,4.944,41.409,-3.56149
45.55,476.08,4.723,39.562,-3.5774
45.6,476.58,4.504,37.721,-3.563
45.65,477.08,4.281,35.858,-3.68302
45.7,477.58,4.057,33.979,-3.78686
45.76,478.08,3.824,32.032,-3.84049
45.81,478.58,3.601,30.162,-3.62367
45.86,479.08,3.379,28.298,-3.65912
45.91,479.58,3.157,26.444,-3.6787
45.96,480.08,2.938,24.608,-3.67993
46,480.58,2.729,22.856,-3.52827
46.05,481.081,2.516,21.074,-3.47126
46.1,481.581,2.307,19.323,-3.48974
46.15,482.081,2.103,17.614,-3.32517
46.2,482.581,1.907,15.971,-3.15572
46.25,483.081,1.718,14.389,-3.01167
46.3,483.581,1.537,12.873,-2.82798
46.35,484.081,1.366,11.44,-2.80028
46.4,484.581,1.209,10.123,-2.57734
46.45,485.081,1.057,8.856,-2.33644
46.5,485.581,0.9180000,7.689,-2.20411
46.55,486.081,0.7910000,6.623,-1.96196
46.6,486.582,0.6810000,5.705,-1.75009
46.65,487.082,0.5810000,4.865,-1.5334
46.7,487.582,0.4980000,4.17,-1.33385
46.75,488.082,0.4290000,3.59,-1.07791
46.8,488.582,0.3700000,3.098,-0.8603640
46.84,489.082,0.3250000,2.724,-0.6651220
46.89,489.582,0.2900000,2.428,-0.4876960
46.94,490.082,0.2640000,2.209,-0.3487180
46.99,490.582,0.2460000,2.061,-0.2505620
47.04,491.082,0.2340000,1.957,-0.1570450
47.09,491.582,0.2260000,1.892,-0.1032490
47.14,492.083,0.2210000,1.854,-0.0534789
47.19,492.583,0.2180000,1.83,-0.0467059
47.24,493.083,0.2160000,1.807,-0.0451460
47.29,493.583,0.2130000,1.786,-0.0403866
47.35,494.083,0.2110000,1.767,-0.0341710
47.4,494.583,0.2090000,1.752,-0.0278417
47.45,495.083,0.2080000,1.739,-0.0223776
47.5,495.583,0.2060000,1.729,-0.0176894
47.55,496.083,0.2050000,1.721,-0.0140256
47.6,496.583,0.2050000,1.715,-0.0106093
47.65,497.083,0.2040000,1.71,-0.0081089
47.7,497.583,0.2040000,1.706,-0.0067759
47.75,498.084,0.2030000,1.703,-0.0051544
47.8,498.584,0.2030000,1.701,-0.0040719
47.85,499.084,0.2030000,1.699,-0.0026277
47.9,499.584,0.2030000,1.698,-0.0023216
47.95,500.084,0.2030000,1.697,-0.0015626
48,500.584,0.2020000,1.696,-0.0013494
48.05,501.084,0.2020000,1.695,-0.0015117
48.1,501.584,0.2020000,1.695,-0.0004285
48.15,502.084,0.2020000,1.694,-0.0005816
48.2,502.584,0.2020000,1.694,-0.0007236
48.25,503.084,0.2020000,1.694,-0.0002878
48.3,503.585,0.2020000,1.694,-0.0003144
48.35,504.085,0.2020000,1.694,-0.0003439
48.4,504.585,0.2020000,1.693,-0.0003661
48.45,505.085,0.2020000,1.693,-0.0002195
48.5,505.585,0.2020000,1.693,-0.0003181
48.55,506.085,0.2020000,1.693,-0.0004608
48.6,506.585,0.2020000,1.693,0.0002093
48.65,507.085,0.2020000,1.693,-0.0000943
48.7,507.585,0.2020000,1.693,0.0005567
48.75,508.085,0.2020000,1.693,0.0000243
48.8,508.585,0.2020000,1.693,-0.0000285
48.85,509.086,0.2020000,1.694,-0.0000464
48.9,509.586,0.2020000,1.694,-0.0002449
48.95,510.086,0.2020000,1.694,-0.0000186
49,510.586,0.2020000,1.694,-0.0002401
49.05,511.086,0.2020000,1.694,-0.0004915
49.1,511.586,0.2020000,1.694,0.0000958
49.15,512.086,0.2020000,1.694,0.0003423
49.2,512.586,0.2020000,1.694,0.0003009
49.25,513.086,0.2020000,1.694,-0.0002542
49.3,513.586,0.2020000,1.694,0.0002393
49.35,514.086,0.2020000,1.694,0.0003426
49.4,514.587,0.2020000,1.694,-0.0000258
49.45,515.087,0.2020000,1.695,-0.0001969
49.5,515.587,0.2020000,1.695,-0.0000086
49.55,516.087,0.2020000,1.695,-0.0000764
49.6,516.587,0.2020000,1.695,-0.0003913
49.65,517.087,0.2020000,1.695,-0.0001114
49.7,517.587,0.2020000,1.695,0.0002229
49.75,518.087,0.2020000,1.695,0.0001770
49.8,518.587,0.2020000,1.695,0.0004342
49.85,519.087,0.2020000,1.696,-0.0000157
49.9,519.587,0.2020000,1.696,-0.0000865
49.95,520.088,0.2020000,1.696,-0.0002745
50,520.588,0.2020000,1.696,-0.0001072
50.05,521.088,0.2020000,1.696,0.0001007
50.1,521.588,0.2020000,1.696,-0.0003475
50.15,522.088,0.2020000,1.696,-0.0006363
50.2,522.588,0.2020000,1.696,-0.0004085
50.25,523.088,0.2020000,1.696,-0.0002199
50.3,523.588,0.2030000,1.696,-0.0001200
50.35,524.088,0.2030000,1.696,-0.0002186
50.4,524.588,0.2030000,1.696,-0.0003957
50.45,525.088,0.2030000,1.696,0.0001722
50.5,525.588,0.2030000,1.696,0.0001193
50.55,526.089,0.2030000,1.696,-0.0002921
50.6,526.589,0.2030000,1.696,-0.0000800
50.65,527.089,0.2030000,1.697,-0.0000564
50.7,527.589,0.2030000,1.697,0.0000829
50.75,528.089,0.2030000,1.697,0.0001313
50.8,528.589,0.2030000,1.697,-0.0002614
50.85,529.089,0.2030000,1.697,-0.0000865
50.9,529.589,0.2030000,1.697,0.0001607
50.95,530.089,0.2030000,1.697,-0.0002243
51,530.589,0.2030000,1.697,0.0000002
51.05,531.089,0.2030000,1.697,0.0002179
51.1,531.59,0.2030000,1.697,0.0001557
51.15,532.09,0.2030000,1.697,0.0000428
51.2,532.59,0.2030000,1.697,-0.0000307
51.25,533.09,0.2030000,1.697,0.0003421
51.3,533.59,0.2030000,1.697,0.0002580
51.35,534.09,0.2030000,1.697,0.0003335
51.4,534.59,0.2030000,1.697,0.0004182
51.45,535.09,0.2030000,1.697,0.0002557
51.5,535.59,0.2030000,1.697,0.0002359
51.55,536.09,0.2030000,1.697,0.0005989
51.6,536.59,0.2030000,1.697,0.0003788
51.65,537.091,0.2030000,1.697,0.0003968
51.7,537.591,0.2030000,1.697,0.0002687
51.75,538.091,0.2030000,1.697,0.0003863
51.8,538.591,0.2030000,1.697,0.0001858
51.85,539.091,0.2030000,1.697,0.0001845
51.9,539.591,0.2030000,1.697,-0.0001014
51.95,540.091,0.2030000,1.697,0.0001235
52,540.591,0.2030000,1.697,0.0001042
52.05,541.091,0.2030000,1.697,0.0000673
52.1,541.591,0.2030000,1.697,0.0004192
52.15,542.091,0.2030000,1.697,-0.0000265
52.2,542.592,0.2030000,1.697,-0.0001138
52.25,543.092,0.2030000,1.697,0.0002025
52.3,543.592,0.2030000,1.697,0.0005583
52.35,544.092,0.2030000,1.697,0.0000492
52.4,544.592,0.2030000,1.697,0.0002481
52.45,545.092,0.2030000,1.697,0.0000365
52.5,545.592,0.2030000,1.697,0.0002310
52.55,546.092,0.2030000,1.697,0.0001679
52.6,546.592,0.2030000,1.697,0.0002542
52.65,547.092,0.2030000,1.697,-0.0001834
52.7,547.592,0.2030000,1.697,-0.0000000
52.75,548.093,0.2030000,1.697,0.0001237
52.8,548.593,0.2030000,1.697,0.0000072
52.85,549.093,0.2030000,1.697,0.0003126
52.9,549.593,0.2030000,1.697,0.0006217
52.95,550.093,0.2030000,1.697,0.0000739
53,550.593,0.2030000,1.697,0.0000687
53.05,551.093,0.2030000,1.697,-0.0001228
53.1,551.593,0.2030000,1.697,-0.0001222
53.15,552.093,0.2030000,1.697,-0.0000379
53.2,552.593,0.2030000,1.697,-0.0001535
53.25,553.093,0.2030000,1.697,0.0000379
53.3,553.593,0.2030000,1.698,0.0001486
53.35,554.094,0.2030000,1.698,0.0003653
53.4,554.594,0.2030000,1.698,0.0004456
53.45,555.094,0.2030000,1.698,-0.0000740
53.5,555.594,0.2030000,1.698,0.0001171
53.55,556.094,0.2030000,1.698,-0.0000058
53.6,556.594,0.2030000,1.698,-0.0004195
53.65,557.094,0.2030000,1.698,0.0003146
53.7,557.594,0.2030000,1.698,-0.0000971
53.75,558.094,0.2030000,1.698,0.0001455
53.8,558.594,0.2030000,1.697,-0.0011562
53.85,559.094,0.2030000,1.697,0.0013793
53.9,559.595,0.2030000,1.697,0.0010890
53.95,560.095,0.2030000,1.698,0.0006173
54,560.595,0.2030000,1.698,0.0004910
54.05,561.095,0.2030000,1.698,0.0002295
54.1,561.595,0.2030000,1.699,0.0003296
54.15,562.095,0.2030000,1.699,0.0003701
54.2,562.595,0.2030000,1.699,0.0000893
54.25,563.095,0.2030000,1.699,-0.0001905
54.3,563.595,0.2030000,1.699,-0.0006016
54.35,564.095,0.2030000,1.699,0.0001510
54.4,564.595,0.2030000,1.699,-0.0003584
54.45,565.096,0.2030000,1.699,-0.0002246
54.5,565.596,0.2030000,1.699,-0.0006130
54.55,566.096,0.2030000,1.699,0.0002833
54.6,566.596,0.2030000,1.699,0.0001145
54.65,567.096,0.2030000,1.699,-0.0002603
54.7,567.596,0.2030000,1.699,-0.0001208
54.75,568.096,0.2030000,1.699,-0.0007296
54.8,568.596,0.2030000,1.699,-0.0003572
54.85,569.096,0.2030000,1.699,0.0003034
54.9,569.596,0.2030000,1.699,-0.0005968
54.95,570.096,0.2030000,1.699,-0.0007127
55,570.597,0.2030000,1.699,0.0000918
55.05,571.097,0.2030000,1.699,-0.0000200
55.1,571.597,0.2030000,1.699,-0.0001816
55.15,572.097,0.2030000,1.699,-0.0001408
55.2,572.597,0.2030000,1.699,0.0000223
55.25,573.097,0.2030000,1.699,0.0001551
55.3,573.597,0.2030000,1.699,-0.0002382
55.35,574.097,0.2030000,1.699,0.0001985
55.4,574.597,0.2030000,1.699,-0.0004904
55.45,575.097,0.2030000,1.699,-0.0004759
55.5,575.597,0.2030000,1.699,-0.0003665
55.55,576.098,0.2030000,1.699,-0.0000857
55.6,576.598,0.2030000,1.699,-0.0000928
55.65,577.098,0.2030000,1.699,-0.0001178
55.7,577.598,0.2030000,1.699,-0.0003338
55.75,578.098,0.2030000,1.699,-0.0002196
55.8,578.598,0.2030000,1.699,-0.0003591
55.85,579.098,0.2030000,1.699,0.0000346
55.9,579.598,0.2030000,1.699,-0.0003235
55.95,580.098,0.2030000,1.699,0.0002794
56,580.598,0.2030000,1.699,0.0000587
56.05,581.098,0.2030000,1.699,-0.0002962
56.1,581.598,0.2030000,1.699,-0.0004407
56.15,582.099,0.2030000,1.699,-0.0002744
56.2,582.599,0.2030000,1.699,-0.0001760
56.25,583.099,0.2030000,1.698,0.0000006
56.3,583.599,0.2030000,1.698,-0.0001080
56.35,584.099,0.2030000,1.698,0.0000835
56.4,584.599,0.2030000,1.698,-0.0001337
56.45,585.099,0.2030000,1.698,0.0003923
56.5,585.599,0.2030000,1.698,-0.0002738
56.55,586.099,0.2030000,1.698,-0.0001554
56.6,586.599,0.2030000,1.698,0.0000236
56.65,587.099,0.2030000,1.698,0.0002783
56.7,587.6,0.2030000,1.698,0.0000608
56.75,588.1,0.2030000,1.698,-0.0002830
56.8,588.6,0.2030000,1.698,0.0002615
56.85,589.1,0.2030000,1.698,-0.0001595
56.9,589.6,0.2030000,1.698,0.0001424
56.94,590,0.2030000,1.698,-0.0004356