File: R/rHDPE_App/app/www/Output/TGA/Condensed_Data/Resin6_1_.csv
1.29,30,12.04,100.049,0.0035104
1.35,30.5001,12.04,100.05,0.0027385
1.4,31.0002,12.04,100.052,0.0036408
1.46,31.5003,12.041,100.053,0.0009156
1.51,32.0004,12.041,100.054,0.0035381
1.57,32.5004,12.041,100.055,0.0033159
1.62,33.0005,12.041,100.056,0.0020214
1.68,33.5006,12.041,100.057,0.0011953
1.73,34.0007,12.041,100.058,0.0016802
1.79,34.5008,12.041,100.059,0.0011779
1.84,35.0009,12.041,100.06,0.0003431
1.89,35.501,12.041,100.061,0.0010061
1.95,36.0011,12.042,100.061,0.0021817
2,36.5012,12.042,100.062,0.0009011
2.05,37.0013,12.042,100.063,0.0002858
2.1,37.5013,12.042,100.063,0.0015761
2.16,38.0014,12.042,100.064,0.0011379
2.21,38.5015,12.042,100.065,0.0016758
2.26,39.0016,12.042,100.065,0.0015810
2.32,39.5017,12.042,100.066,0.0009943
2.36,40.0018,12.042,100.067,0.0012512
2.42,40.5019,12.042,100.067,0.0009432
2.47,41.002,12.042,100.068,0.0011927
2.52,41.5021,12.042,100.068,0.0020539
2.57,42.0021,12.042,100.069,0.0008109
2.63,42.5022,12.043,100.069,0.0007081
2.68,43.0023,12.043,100.07,0.0009318
2.73,43.5024,12.043,100.07,0.0015504
2.78,44.0025,12.043,100.071,0.0013447
2.83,44.5026,12.043,100.072,0.0006526
2.88,45.0027,12.043,100.072,0.0010114
2.93,45.5028,12.043,100.073,0.0006566
2.98,46.0029,12.043,100.073,0.0009945
3.04,46.5029,12.043,100.074,0.0010382
3.09,47.003,12.043,100.074,0.0008475
3.14,47.5031,12.043,100.075,0.0008901
3.19,48.0032,12.043,100.076,0.0006119
3.24,48.5033,12.043,100.076,0.0008488
3.29,49.0034,12.043,100.077,0.0014381
3.34,49.5035,12.044,100.077,0.0010172
3.39,50.0036,12.044,100.078,0.0012334
3.44,50.5037,12.044,100.078,0.0013280
3.5,51.0038,12.044,100.079,0.0016932
3.55,51.5038,12.044,100.08,0.0020540
3.6,52.0039,12.044,100.081,0.0018696
3.65,52.504,12.044,100.081,0.0017233
3.7,53.0041,12.044,100.082,0.0016215
3.75,53.5042,12.044,100.083,0.0015526
3.8,54.0043,12.044,100.084,0.0014406
3.85,54.5044,12.044,100.085,0.0016890
3.9,55.0045,12.044,100.085,0.0014726
3.96,55.5046,12.045,100.086,0.0023461
4.01,56.0046,12.045,100.087,0.0016041
4.06,56.5047,12.045,100.088,0.0014243
4.11,57.0048,12.045,100.089,0.0015990
4.16,57.5049,12.045,100.09,0.0013962
4.21,58.005,12.045,100.09,0.0013966
4.26,58.5051,12.045,100.091,0.0017259
4.31,59.0052,12.045,100.092,0.0013973
4.36,59.5053,12.045,100.092,0.0012451
4.41,60.0054,12.045,100.093,0.0013970
4.46,60.5054,12.045,100.094,0.0014653
4.51,61.0055,12.046,100.094,0.0018487
4.56,61.5056,12.046,100.095,0.0013501
4.61,62.0057,12.046,100.096,0.0017073
4.66,62.5058,12.046,100.096,0.0006152
4.71,63.0059,12.046,100.097,0.0010013
4.76,63.506,12.046,100.097,0.0011195
4.81,64.0061,12.046,100.098,0.0011785
4.86,64.5062,12.046,100.098,0.0007220
4.91,65.0063,12.046,100.099,0.0008998
4.96,65.5063,12.046,100.099,0.0011912
5.01,66.0064,12.046,100.1,0.0011908
5.06,66.5065,12.046,100.1,0.0007818
5.11,67.0066,12.046,100.101,0.0011086
5.16,67.5067,12.046,100.101,0.0012501
5.21,68.0068,12.046,100.102,0.0012659
5.26,68.5069,12.047,100.103,0.0011599
5.31,69.007,12.047,100.103,0.0010199
5.36,69.5071,12.047,100.104,0.0011932
5.41,70.0071,12.047,100.105,0.0010991
5.46,70.5072,12.047,100.106,0.0017465
5.51,71.0073,12.047,100.106,0.0011552
5.56,71.5074,12.047,100.107,0.0013309
5.62,72.0075,12.047,100.107,0.0010013
5.67,72.5076,12.047,100.108,0.0010170
5.72,73.0077,12.047,100.108,0.0011555
5.77,73.5078,12.047,100.109,0.0012012
5.82,74.0079,12.047,100.109,0.0009247
5.87,74.5079,12.047,100.11,0.0011572
5.92,75.008,12.048,100.11,0.0015262
5.97,75.5081,12.048,100.111,0.0016659
6.02,76.0082,12.048,100.112,0.0008986
6.07,76.5083,12.048,100.112,0.0012984
6.11,77.0084,12.048,100.113,0.0013841
6.16,77.5085,12.048,100.113,0.0006859
6.21,78.0086,12.048,100.114,0.0008768
6.26,78.5087,12.048,100.114,0.0010174
6.31,79.0088,12.048,100.115,0.0010961
6.36,79.5088,12.048,100.115,0.0007466
6.42,80.0089,12.048,100.116,0.0010198
6.47,80.509,12.048,100.117,0.0010075
6.52,81.0091,12.048,100.117,0.0006423
6.57,81.5092,12.048,100.118,0.0013375
6.62,82.0093,12.048,100.118,0.0011370
6.67,82.5094,12.048,100.119,0.0007831
6.72,83.0095,12.049,100.119,0.0012438
6.77,83.5096,12.049,100.12,0.0015117
6.82,84.0096,12.049,100.12,0.0013738
6.87,84.5097,12.049,100.121,0.0015629
6.92,85.0098,12.049,100.121,0.0010148
6.97,85.5099,12.049,100.122,0.0007851
7.02,86.01,12.049,100.122,0.0008314
7.07,86.5101,12.049,100.123,0.0007871
7.12,87.0102,12.049,100.123,0.0010239
7.17,87.5103,12.049,100.124,0.0017181
7.22,88.0104,12.049,100.124,0.0004161
7.28,88.5104,12.049,100.125,0.0005463
7.32,89.0105,12.049,100.125,0.0006377
7.37,89.5106,12.049,100.125,0.0008648
7.42,90.0107,12.049,100.126,0.0011856
7.47,90.5108,12.049,100.126,0.0013175
7.52,91.0109,12.05,100.127,0.0011849
7.57,91.511,12.05,100.127,0.0006389
7.62,92.0111,12.05,100.128,0.0004568
7.67,92.5112,12.05,100.128,0.0006389
7.72,93.0113,12.05,100.128,0.0003196
7.77,93.5113,12.05,100.129,0.0006869
7.83,94.0114,12.05,100.129,0.0004944
7.87,94.5115,12.05,100.129,0.0009479
7.92,95.0116,12.05,100.13,0.0005326
7.97,95.5117,12.05,100.13,0.0004586
8.02,96.0118,12.05,100.13,0.0006425
8.07,96.5119,12.05,100.131,0.0007348
8.12,97.012,12.05,100.131,0.0004145
8.17,97.5121,12.05,100.131,0.0006364
8.22,98.0121,12.05,100.132,0.0009498
8.27,98.5122,12.05,100.132,0.0003648
8.32,99.0123,12.05,100.132,0.0004569
8.37,99.5124,12.05,100.133,0.0007167
8.42,100.013,12.05,100.133,0.0009628
8.47,100.513,12.05,100.133,0.0004716
8.52,101.013,12.05,100.134,0.0008754
8.57,101.513,12.05,100.134,0.0010354
8.62,102.013,12.05,100.134,0.0008774
8.67,102.513,12.05,100.134,0.0004934
8.72,103.013,12.05,100.135,0.0011131
8.77,103.513,12.05,100.135,0.0002706
8.82,104.013,12.05,100.135,0.0007229
8.87,104.513,12.05,100.135,0.0004352
8.92,105.013,12.051,100.136,0.0004164
8.97,105.513,12.051,100.136,0.0001479
9.02,106.014,12.051,100.136,0.0000927
9.07,106.514,12.051,100.136,0.0004193
9.13,107.014,12.051,100.136,0.0001461
9.18,107.514,12.051,100.137,0.0006327
9.23,108.014,12.051,100.137,0.0009956
9.28,108.514,12.051,100.138,0.0005036
9.33,109.014,12.051,100.138,0.0004110
9.38,109.514,12.051,100.138,0.0005037
9.43,110.014,12.051,100.139,0.0005504
9.48,110.514,12.051,100.139,0.0003243
9.53,111.014,12.051,100.139,0.0006246
9.58,111.515,12.051,100.14,0.0011641
9.63,112.015,12.051,100.14,0.0000352
9.68,112.515,12.051,100.14,0.0002706
9.73,113.015,12.051,100.14,0.0003631
9.78,113.515,12.051,100.14,0.0006320
9.82,114.015,12.051,100.14,-0.0002257
9.87,114.515,12.051,100.14,-0.0000167
9.92,115.015,12.051,100.14,0.0003876
9.97,115.515,12.051,100.14,-0.0000705
10.02,116.015,12.051,100.14,0.0008462
10.07,116.515,12.051,100.141,0.0004503
10.12,117.016,12.051,100.141,0.0002277
10.17,117.516,12.051,100.141,-0.0000452
10.22,118.016,12.051,100.141,0.0000490
10.27,118.516,12.051,100.141,-0.0002734
10.32,119.016,12.051,100.141,0.0002786
10.37,119.516,12.051,100.141,0.0005508
10.42,120.016,12.051,100.141,0.0005854
10.47,120.516,12.051,100.142,0.0005425
10.52,121.016,12.051,100.142,0.0003919
10.57,121.516,12.051,100.142,0.0000458
10.62,122.016,12.051,100.142,0.0000157
10.67,122.517,12.051,100.142,0.0001843
10.72,123.017,12.051,100.142,0.0001847
10.77,123.517,12.051,100.142,0.0000292
10.82,124.017,12.051,100.142,0.0000462
10.87,124.517,12.051,100.142,0.0001702
10.92,125.017,12.051,100.142,0.0002749
10.97,125.517,12.051,100.142,0.0002304
11.02,126.017,12.051,100.142,-0.0001860
11.07,126.517,12.051,100.142,0.0001914
11.12,127.017,12.051,100.142,0.0001365
11.17,127.517,12.051,100.142,0.0007476
11.23,128.018,12.051,100.143,0.0005125
11.28,128.518,12.051,100.143,0.0004194
11.33,129.018,12.051,100.143,0.0001248
11.38,129.518,12.051,100.143,0.0006113
11.43,130.018,12.051,100.144,0.0009105
11.48,130.518,12.051,100.144,0.0002693
11.53,131.018,12.051,100.144,-0.0000451
11.58,131.518,12.051,100.144,-0.0000000
11.63,132.018,12.051,100.143,-0.0004628
11.68,132.518,12.051,100.144,-0.0001369
11.73,133.018,12.051,100.144,-0.0003623
11.78,133.518,12.051,100.144,-0.0002724
11.82,134.019,12.051,100.144,0.0001371
11.88,134.519,12.051,100.144,-0.0001380
11.93,135.019,12.051,100.144,0.0000000
11.98,135.519,12.051,100.144,0.0004166
12.03,136.019,12.051,100.144,0.0004148
12.08,136.519,12.052,100.144,0.0000132
12.13,137.019,12.051,100.144,0.0001386
12.18,137.519,12.052,100.144,0.0000563
12.23,138.019,12.052,100.144,0.0000469
12.28,138.519,12.052,100.144,0.0002154
12.33,139.019,12.052,100.144,0.0002253
12.38,139.52,12.052,100.144,0.0003583
12.43,140.02,12.052,100.144,0.0000927
12.48,140.52,12.052,100.144,0.0002636
12.53,141.02,12.052,100.144,0.0003428
12.58,141.52,12.052,100.144,0.0004068
12.63,142.02,12.052,100.144,-0.0002721
12.68,142.52,12.052,100.145,0.0006369
12.73,143.02,12.052,100.145,0.0005020
12.78,143.52,12.052,100.145,0.0006396
12.83,144.02,12.052,100.145,-0.0000568
12.88,144.52,12.052,100.145,0.0004527
12.93,145.021,12.052,100.145,0.0000000
12.98,145.521,12.052,100.145,-0.0002705
13.03,146.021,12.052,100.145,-0.0004097
13.08,146.521,12.052,100.145,-0.0000014
13.13,147.021,12.052,100.145,0.0003449
13.17,147.521,12.052,100.145,-0.0001749
13.22,148.021,12.052,100.145,-0.0003623
13.27,148.521,12.052,100.145,-0.0001356
13.32,149.021,12.052,100.145,-0.0000914
13.37,149.521,12.052,100.145,-0.0001385
13.42,150.021,12.052,100.145,-0.0000461
13.47,150.522,12.052,100.145,-0.0002296
13.52,151.022,12.052,100.145,-0.0000532
13.57,151.522,12.052,100.145,0.0000687
13.62,152.022,12.052,100.145,-0.0000462
13.67,152.522,12.052,100.145,-0.0004065
13.72,153.022,12.052,100.145,-0.0002178
13.77,153.522,12.052,100.145,-0.0006018
13.82,154.022,12.052,100.145,-0.0003097
13.87,154.522,12.052,100.144,-0.0008660
13.92,155.022,12.052,100.144,-0.0005367
13.97,155.522,12.051,100.144,-0.0005998
14.02,156.023,12.051,100.143,-0.0007877
14.07,156.523,12.051,100.143,-0.0004679
14.12,157.023,12.051,100.142,-0.0011219
14.17,157.523,12.051,100.142,-0.0007908
14.22,158.023,12.051,100.141,-0.0009728
14.27,158.523,12.051,100.14,-0.0022181
14.32,159.023,12.051,100.139,-0.0019378
14.37,159.523,12.051,100.138,-0.0016642
14.42,160.023,12.051,100.137,-0.0018693
14.47,160.523,12.051,100.136,-0.0015936
14.52,161.023,12.05,100.135,-0.0018295
14.57,161.523,12.05,100.134,-0.0022491
14.62,162.024,12.05,100.133,-0.0019682
14.67,162.524,12.05,100.132,-0.0022544
14.73,163.024,12.05,100.131,-0.0015643
14.78,163.524,12.05,100.13,-0.0017857
14.83,164.024,12.05,100.129,-0.0017772
14.87,164.524,12.05,100.128,-0.0016952
14.92,165.024,12.05,100.128,-0.0017400
14.96,165.524,12.049,100.127,-0.0015974
15.01,166.024,12.049,100.126,-0.0017695
15.06,166.524,12.049,100.125,-0.0013943
15.11,167.024,12.049,100.124,-0.0011913
15.16,167.525,12.049,100.124,-0.0015979
15.22,168.025,12.049,100.123,-0.0012989
15.27,168.525,12.049,100.122,-0.0014953
15.32,169.025,12.049,100.122,-0.0008626
15.37,169.525,12.049,100.121,-0.0009074
15.42,170.025,12.049,100.121,-0.0011612
15.47,170.525,12.049,100.12,-0.0012683
15.52,171.025,12.049,100.12,-0.0011566
15.57,171.525,12.049,100.119,-0.0009693
15.62,172.025,12.048,100.119,-0.0008452
15.67,172.525,12.048,100.118,-0.0011968
15.72,173.026,12.048,100.118,-0.0010930
15.77,173.526,12.048,100.117,-0.0011248
15.82,174.026,12.048,100.116,-0.0010243
15.87,174.526,12.048,100.116,-0.0002788
15.92,175.026,12.048,100.116,-0.0015835
15.97,175.526,12.048,100.115,-0.0014936
16.03,176.026,12.048,100.114,-0.0012916
16.08,176.526,12.048,100.114,-0.0015923
16.13,177.026,12.048,100.113,-0.0013572
16.18,177.526,12.048,100.112,-0.0011839
16.23,178.026,12.048,100.112,-0.0015242
16.28,178.527,12.048,100.111,-0.0015668
16.33,179.027,12.047,100.11,-0.0012907
16.38,179.527,12.047,100.11,-0.0016156
16.43,180.027,12.047,100.109,-0.0012937
16.48,180.527,12.047,100.108,-0.0012971
16.53,181.027,12.047,100.108,-0.0010255
16.58,181.527,12.047,100.107,-0.0014304
16.63,182.027,12.047,100.106,-0.0017098
16.68,182.527,12.047,100.106,-0.0011994
16.73,183.027,12.047,100.105,-0.0014475
16.78,183.527,12.047,100.104,-0.0012936
16.83,184.028,12.047,100.104,-0.0015164
16.88,184.528,12.047,100.103,-0.0007104
16.92,185.028,12.047,100.103,-0.0013809
16.97,185.528,12.046,100.102,-0.0017051
17.02,186.028,12.046,100.101,-0.0011630
17.08,186.528,12.046,100.1,-0.0013117
17.13,187.028,12.046,100.099,-0.0018225
17.18,187.528,12.046,100.099,-0.0013126
17.23,188.028,12.046,100.098,-0.0010993
17.28,188.528,12.046,100.097,-0.0016374
17.33,189.028,12.046,100.097,-0.0015709
17.38,189.528,12.046,100.096,-0.0011921
17.43,190.029,12.046,100.095,-0.0017955
17.48,190.529,12.046,100.094,-0.0012528
17.53,191.029,12.045,100.093,-0.0014785
17.58,191.529,12.045,100.093,-0.0023541
17.63,192.029,12.045,100.092,-0.0017333
17.68,192.529,12.045,100.091,-0.0011908
17.73,193.029,12.045,100.091,-0.0022961
17.78,193.529,12.045,100.089,-0.0023005
17.83,194.029,12.045,100.089,-0.0016095
17.88,194.529,12.045,100.088,-0.0020690
17.93,195.029,12.045,100.087,-0.0017489
17.98,195.53,12.045,100.086,-0.0017770
18.03,196.03,12.044,100.085,-0.0020311
18.08,196.53,12.044,100.084,-0.0018098
18.13,197.03,12.044,100.083,-0.0016528
18.18,197.53,12.044,100.083,-0.0013836
18.23,198.03,12.044,100.082,-0.0017776
18.29,198.53,12.044,100.081,-0.0018292
18.34,199.03,12.044,100.08,-0.0012092
18.39,199.53,12.044,100.079,-0.0018287
18.44,200.03,12.044,100.078,-0.0017246
18.49,200.53,12.044,100.077,-0.0017273
18.54,201.031,12.043,100.076,-0.0025165
18.59,201.531,12.043,100.075,-0.0022665
18.64,202.031,12.043,100.074,-0.0011667
18.69,202.531,12.043,100.074,-0.0020605
18.73,203.031,12.043,100.073,-0.0021358
18.78,203.531,12.043,100.072,-0.0022427
18.83,204.031,12.043,100.07,-0.0024790
18.88,204.531,12.043,100.069,-0.0021987
18.93,205.031,12.042,100.068,-0.0023073
18.98,205.531,12.042,100.067,-0.0023094
19.03,206.031,12.042,100.066,-0.0020852
19.08,206.532,12.042,100.065,-0.0020015
19.13,207.032,12.042,100.064,-0.0021124
19.18,207.532,12.042,100.063,-0.0021163
19.23,208.032,12.042,100.062,-0.0020988
19.28,208.532,12.041,100.061,-0.0027051
19.33,209.032,12.041,100.059,-0.0021552
19.38,209.532,12.041,100.058,-0.0019973
19.43,210.032,12.041,100.057,-0.0021556
19.48,210.532,12.041,100.056,-0.0023482
19.53,211.032,12.041,100.055,-0.0023937
19.58,211.532,12.041,100.054,-0.0026649
19.63,212.033,12.041,100.053,-0.0024800
19.68,212.533,12.04,100.052,-0.0022518
19.73,213.033,12.04,100.051,-0.0021739
19.78,213.533,12.04,100.05,-0.0024191
19.83,214.033,12.04,100.049,-0.0025725
19.88,214.533,12.04,100.047,-0.0025721
19.93,215.033,12.04,100.046,-0.0023520
19.98,215.533,12.04,100.045,-0.0025174
20.04,216.033,12.039,100.044,-0.0021766
20.08,216.533,12.039,100.043,-0.0026377
20.13,217.033,12.039,100.042,-0.0019358
20.17,217.533,12.039,100.041,-0.0022859
20.21,218.034,12.039,100.039,-0.0027463
20.26,218.534,12.039,100.038,-0.0023616
20.31,219.034,12.039,100.037,-0.0028309
20.36,219.534,12.038,100.035,-0.0027822
20.41,220.034,12.038,100.034,-0.0027033
20.46,220.534,12.038,100.033,-0.0025682
20.51,221.034,12.038,100.032,-0.0020684
20.56,221.534,12.038,100.031,-0.0010208
20.61,222.034,12.038,100.03,-0.0027239
20.67,222.534,12.038,100.028,-0.0023180
20.72,223.034,12.037,100.027,-0.0023559
20.77,223.535,12.037,100.026,-0.0027505
20.82,224.035,12.037,100.025,-0.0025681
20.87,224.535,12.037,100.024,-0.0023901
20.92,225.035,12.037,100.022,-0.0026578
20.97,225.535,12.037,100.021,-0.0024748
21.02,226.035,12.037,100.02,-0.0022955
21.07,226.535,12.036,100.018,-0.0023446
21.12,227.035,12.036,100.017,-0.0024865
21.17,227.535,12.036,100.016,-0.0027408
21.22,228.035,12.036,100.015,-0.0023594
21.28,228.535,12.036,100.013,-0.0028305
21.33,229.036,12.036,100.012,-0.0026679
21.38,229.536,12.035,100.011,-0.0025735
21.43,230.036,12.035,100.009,-0.0027220
21.48,230.536,12.035,100.008,-0.0018043
21.53,231.036,12.035,100.007,-0.0023577
21.58,231.536,12.035,100.006,-0.0020571
21.63,232.036,12.035,100.005,-0.0021088
21.67,232.536,12.035,100.003,-0.0024941
21.72,233.036,12.034,100.002,-0.0026019
21.77,233.536,12.034,100,-0.0025641
21.82,234.036,12.034,99.999,-0.0021739
21.87,234.537,12.034,99.998,-0.0027051
21.93,235.037,12.034,99.996,-0.0029133
21.97,235.537,12.034,99.995,-0.0021667
22.03,236.037,12.033,99.994,-0.0025575
22.08,236.537,12.033,99.993,-0.0020960
22.13,237.037,12.033,99.991,-0.0028483
22.18,237.537,12.033,99.99,-0.0030864
22.23,238.037,12.033,99.989,-0.0029834
22.28,238.537,12.033,99.987,-0.0026623
22.33,239.037,12.033,99.986,-0.0023422
22.38,239.537,12.032,99.985,-0.0023282
22.43,240.038,12.032,99.983,-0.0024753
22.48,240.538,12.032,99.982,-0.0025681
22.53,241.038,12.032,99.981,-0.0026368
22.58,241.538,12.032,99.979,-0.0029837
22.64,242.038,12.032,99.978,-0.0025141
22.69,242.538,12.031,99.977,-0.0027380
22.74,243.038,12.031,99.976,-0.0024860
22.79,243.538,12.031,99.974,-0.0021669
22.84,244.038,12.031,99.973,-0.0026158
22.89,244.538,12.031,99.972,-0.0027963
22.94,245.038,12.031,99.97,-0.0025202
22.99,245.538,12.03,99.969,-0.0025638
23.04,246.039,12.03,99.968,-0.0027216
23.09,246.539,12.03,99.966,-0.0025820
23.14,247.039,12.03,99.965,-0.0023108
23.19,247.539,12.03,99.964,-0.0022796
23.24,248.039,12.03,99.963,-0.0024650
23.29,248.539,12.03,99.961,-0.0029579
23.34,249.039,12.029,99.96,-0.0027828
23.39,249.539,12.029,99.958,-0.0027401
23.44,250.039,12.029,99.957,-0.0026116
23.49,250.539,12.029,99.956,-0.0026022
23.54,251.039,12.029,99.954,-0.0029144
23.59,251.54,12.029,99.953,-0.0027722
23.64,252.04,12.028,99.951,-0.0028348
23.69,252.54,12.028,99.95,-0.0025669
23.74,253.04,12.028,99.949,-0.0030524
23.79,253.54,12.028,99.947,-0.0033864
23.84,254.04,12.028,99.946,-0.0028150
23.89,254.54,12.028,99.944,-0.0023271
23.94,255.04,12.027,99.943,-0.0029530
23.99,255.54,12.027,99.942,-0.0028505
24.04,256.04,12.027,99.94,-0.0026236
24.09,256.54,12.027,99.939,-0.0031684
24.14,257.041,12.027,99.937,-0.0027841
24.19,257.541,12.026,99.936,-0.0022254
24.24,258.041,12.026,99.935,-0.0025683
24.29,258.541,12.026,99.933,-0.0026178
24.34,259.041,12.026,99.932,-0.0024711
24.39,259.541,12.026,99.931,-0.0032658
24.44,260.041,12.026,99.929,-0.0028183
24.49,260.541,12.026,99.928,-0.0027413
24.53,261.041,12.025,99.926,-0.0029124
24.58,261.541,12.025,99.925,-0.0027889
24.63,262.041,12.025,99.923,-0.0026291
24.69,262.542,12.025,99.922,-0.0029034
24.74,263.042,12.025,99.92,-0.0033173
24.79,263.542,12.024,99.919,-0.0032629
24.84,264.042,12.024,99.917,-0.0026654
24.89,264.542,12.024,99.916,-0.0032658
24.94,265.042,12.024,99.914,-0.0031527
24.99,265.542,12.024,99.913,-0.0031339
25.04,266.042,12.024,99.911,-0.0029499
25.09,266.542,12.023,99.91,-0.0029042
25.14,267.042,12.023,99.909,-0.0025386
25.19,267.542,12.023,99.907,-0.0025884
25.24,268.043,12.023,99.906,-0.0029715
25.29,268.543,12.023,99.904,-0.0029772
25.33,269.043,12.023,99.903,-0.0028349
25.38,269.543,12.022,99.902,-0.0029156
25.43,270.043,12.022,99.9,-0.0030415
25.48,270.543,12.022,99.899,-0.0029451
25.53,271.043,12.022,99.897,-0.0027716
25.58,271.543,12.022,99.896,-0.0029131
25.63,272.043,12.021,99.894,-0.0027089
25.68,272.543,12.021,99.893,-0.0028508
25.73,273.043,12.021,99.892,-0.0026930
25.78,273.543,12.021,99.89,-0.0032049
25.83,274.044,12.021,99.889,-0.0029228
25.88,274.544,12.021,99.887,-0.0031481
25.93,275.044,12.02,99.886,-0.0029768
25.99,275.544,12.02,99.884,-0.0034130
26.04,276.044,12.02,99.883,-0.0029208
26.08,276.544,12.02,99.881,-0.0027769
26.13,277.044,12.02,99.88,-0.0027560
26.18,277.544,12.02,99.878,-0.0030385
26.23,278.044,12.019,99.877,-0.0035961
26.28,278.544,12.019,99.875,-0.0034676
26.33,279.044,12.019,99.874,-0.0029966
26.38,279.545,12.019,99.872,-0.0030097
26.44,280.045,12.019,99.871,-0.0033318
26.49,280.545,12.018,99.869,-0.0033458
26.54,281.045,12.018,99.868,-0.0024978
26.58,281.545,12.018,99.866,-0.0031496
26.63,282.045,12.018,99.865,-0.0029437
26.68,282.545,12.018,99.863,-0.0031893
26.73,283.045,12.018,99.861,-0.0037233
26.78,283.545,12.017,99.86,-0.0028897
26.83,284.045,12.017,99.858,-0.0030020
26.88,284.545,12.017,99.857,-0.0031687
26.93,285.046,12.017,99.855,-0.0034122
26.98,285.546,12.017,99.854,-0.0028824
27.03,286.046,12.016,99.852,-0.0031007
27.08,286.546,12.016,99.85,-0.0029778
27.13,287.046,12.016,99.849,-0.0032213
27.18,287.546,12.016,99.847,-0.0030053
27.23,288.046,12.016,99.846,-0.0037971
27.28,288.546,12.015,99.844,-0.0033575
27.34,289.046,12.015,99.843,-0.0026645
27.39,289.546,12.015,99.841,-0.0029176
27.44,290.046,12.015,99.84,-0.0027653
27.48,290.547,12.015,99.838,-0.0034558
27.53,291.047,12.015,99.837,-0.0031628
27.58,291.547,12.014,99.835,-0.0029401
27.63,292.047,12.014,99.834,-0.0028782
27.68,292.547,12.014,99.832,-0.0033449
27.73,293.047,12.014,99.83,-0.0030415
27.78,293.547,12.014,99.829,-0.0032251
27.83,294.047,12.013,99.827,-0.0031573
27.88,294.547,12.013,99.826,-0.0033641
27.93,295.047,12.013,99.824,-0.0030074
27.98,295.547,12.013,99.823,-0.0028930
28.03,296.048,12.013,99.821,-0.0029593
28.09,296.548,12.012,99.819,-0.0028032
28.13,297.048,12.012,99.818,-0.0027922
28.18,297.548,12.012,99.816,-0.0031256
28.23,298.048,12.012,99.815,-0.0034679
28.28,298.548,12.012,99.813,-0.0034939
28.33,299.048,12.011,99.811,-0.0039711
28.38,299.548,12.011,99.81,-0.0035193
28.43,300.048,12.011,99.808,-0.0036196
28.48,300.548,12.011,99.806,-0.0034959
28.53,301.048,12.011,99.804,-0.0030148
28.58,301.548,12.01,99.803,-0.0032949
28.63,302.049,12.01,99.801,-0.0031540
28.68,302.549,12.01,99.8,-0.0026902
28.73,303.049,12.01,99.798,-0.0032004
28.78,303.549,12.01,99.796,-0.0034343
28.83,304.049,12.01,99.795,-0.0035366
28.88,304.549,12.009,99.793,-0.0024128
28.93,305.049,12.009,99.792,-0.0026569
28.98,305.549,12.009,99.79,-0.0035479
29.03,306.049,12.009,99.788,-0.0035994
29.08,306.549,12.009,99.787,-0.0033236
29.14,307.049,12.008,99.785,-0.0034422
29.19,307.55,12.008,99.783,-0.0031822
29.24,308.05,12.008,99.781,-0.0040590
29.3,308.55,12.008,99.78,-0.0036370
29.35,309.05,12.008,99.778,-0.0035937
29.39,309.55,12.007,99.776,-0.0034023
29.44,310.05,12.007,99.775,-0.0031601
29.49,310.55,12.007,99.773,-0.0030028
29.54,311.05,12.007,99.771,-0.0030180
29.59,311.55,12.007,99.77,-0.0035255
29.64,312.05,12.006,99.768,-0.0033406
29.69,312.55,12.006,99.766,-0.0031780
29.74,313.051,12.006,99.765,-0.0033395
29.79,313.551,12.006,99.763,-0.0038140
29.85,314.051,12.005,99.761,-0.0034128
29.9,314.551,12.005,99.759,-0.0034016
29.94,315.051,12.005,99.758,-0.0033662
29.99,315.551,12.005,99.756,-0.0032496
30.04,316.051,12.005,99.754,-0.0037426
30.09,316.551,12.004,99.753,-0.0039075
30.14,317.051,12.004,99.751,-0.0033224
30.19,317.551,12.004,99.749,-0.0033478
30.24,318.051,12.004,99.748,-0.0034565
30.29,318.552,12.004,99.746,-0.0034559
30.33,319.052,12.003,99.744,-0.0031802
30.38,319.552,12.003,99.743,-0.0033028
30.43,320.052,12.003,99.741,-0.0036001
30.48,320.552,12.003,99.739,-0.0037663
30.53,321.052,12.003,99.737,-0.0036292
30.58,321.552,12.002,99.735,-0.0032647
30.64,322.052,12.002,99.734,-0.0036325
30.69,322.552,12.002,99.732,-0.0037293
30.74,323.052,12.002,99.73,-0.0040129
30.79,323.552,12.002,99.729,-0.0039815
30.84,324.053,12.001,99.727,-0.0036226
30.89,324.553,12.001,99.725,-0.0037244
30.94,325.053,12.001,99.723,-0.0034867
30.99,325.553,12.001,99.722,-0.0039660
31.04,326.053,12.001,99.72,-0.0034485
31.09,326.553,12,99.718,-0.0038766
31.15,327.053,12,99.716,-0.0035769
31.19,327.553,12,99.715,-0.0034121
31.24,328.053,12,99.713,-0.0031668
31.29,328.553,11.999,99.711,-0.0033188
31.34,329.053,11.999,99.709,-0.0035892
31.39,329.553,11.999,99.708,-0.0037374
31.44,330.054,11.999,99.706,-0.0035390
31.49,330.554,11.999,99.704,-0.0029863
31.54,331.054,11.998,99.703,-0.0032882
31.59,331.554,11.998,99.701,-0.0040146
31.64,332.054,11.998,99.7,-0.0041993
31.68,332.554,11.998,99.698,-0.0040183
31.73,333.054,11.998,99.696,-0.0042923
31.78,333.554,11.997,99.694,-0.0038413
31.83,334.054,11.997,99.692,-0.0037456
31.88,334.554,11.997,99.69,-0.0038038
31.93,335.054,11.997,99.688,-0.0044397
31.98,335.555,11.996,99.686,-0.0042048
32.03,336.055,11.996,99.685,-0.0039479
32.08,336.555,11.996,99.683,-0.0040055
32.14,337.055,11.996,99.681,-0.0036879
32.19,337.555,11.996,99.679,-0.0039447
32.24,338.055,11.995,99.677,-0.0038102
32.29,338.555,11.995,99.675,-0.0039035
32.34,339.055,11.995,99.673,-0.0032779
32.39,339.555,11.995,99.672,-0.0033399
32.43,340.055,11.994,99.67,-0.0038688
32.48,340.555,11.994,99.668,-0.0034723
32.53,341.056,11.994,99.666,-0.0036576
32.58,341.556,11.994,99.664,-0.0039949
32.63,342.056,11.994,99.662,-0.0036192
32.68,342.556,11.993,99.66,-0.0039134
32.73,343.056,11.993,99.659,-0.0035491
32.78,343.556,11.993,99.657,-0.0036418
32.83,344.056,11.993,99.655,-0.0037809
32.88,344.556,11.992,99.653,-0.0033672
32.93,345.056,11.992,99.651,-0.0037376
32.98,345.556,11.992,99.649,-0.0033409
33.03,346.056,11.992,99.647,-0.0038281
33.08,346.557,11.992,99.645,-0.0040665
33.13,347.057,11.991,99.643,-0.0036044
33.18,347.557,11.991,99.641,-0.0038796
33.23,348.057,11.991,99.64,-0.0037717
33.28,348.557,11.991,99.638,-0.0038175
33.33,349.057,11.99,99.636,-0.0032767
33.38,349.557,11.99,99.634,-0.0038000
33.43,350.057,11.99,99.632,-0.0043811
33.48,350.557,11.99,99.63,-0.0042897
33.53,351.057,11.989,99.628,-0.0041052
33.58,351.557,11.989,99.626,-0.0039207
33.63,352.058,11.989,99.624,-0.0040538
33.68,352.558,11.989,99.622,-0.0034550
33.73,353.058,11.989,99.62,-0.0039646
33.78,353.558,11.988,99.618,-0.0041030
33.84,354.058,11.988,99.616,-0.0043302
33.89,354.558,11.988,99.614,-0.0041052
33.94,355.058,11.988,99.612,-0.0039668
33.99,355.558,11.987,99.61,-0.0038430
34.04,356.058,11.987,99.608,-0.0038113
34.09,356.558,11.987,99.606,-0.0038953
34.14,357.058,11.987,99.604,-0.0037769
34.19,357.558,11.986,99.602,-0.0040999
34.24,358.059,11.986,99.6,-0.0041492
34.29,358.559,11.986,99.598,-0.0038991
34.34,359.059,11.986,99.596,-0.0040923
34.39,359.559,11.985,99.594,-0.0040454
34.44,360.059,11.985,99.592,-0.0039705
34.49,360.559,11.985,99.59,-0.0033345
34.54,361.059,11.985,99.588,-0.0041880
34.59,361.559,11.984,99.586,-0.0046956
34.64,362.059,11.984,99.584,-0.0044951
34.7,362.559,11.984,99.581,-0.0046132
34.75,363.059,11.984,99.579,-0.0039148
34.8,363.56,11.983,99.577,-0.0034293
34.85,364.06,11.983,99.576,-0.0031384
34.89,364.56,11.983,99.574,-0.0045312
34.94,365.06,11.983,99.572,-0.0042781
34.99,365.56,11.982,99.57,-0.0041387
35.04,366.06,11.982,99.567,-0.0044659
35.09,366.56,11.982,99.565,-0.0043053
35.14,367.06,11.982,99.563,-0.0037286
35.19,367.56,11.981,99.561,-0.0039654
35.24,368.06,11.981,99.559,-0.0036060
35.29,368.56,11.981,99.557,-0.0040168
35.34,369.061,11.981,99.555,-0.0044333
35.39,369.561,11.98,99.553,-0.0042614
35.44,370.061,11.98,99.551,-0.0047665
35.49,370.561,11.98,99.549,-0.0038246
35.54,371.061,11.98,99.546,-0.0043377
35.59,371.561,11.979,99.544,-0.0039435
35.64,372.061,11.979,99.542,-0.0041728
35.69,372.561,11.979,99.54,-0.0043080
35.74,373.061,11.979,99.538,-0.0041831
35.79,373.561,11.978,99.536,-0.0041239
35.84,374.061,11.978,99.533,-0.0042536
35.89,374.562,11.978,99.531,-0.0047430
35.94,375.062,11.978,99.529,-0.0043143
35.99,375.562,11.977,99.527,-0.0037684
36.04,376.062,11.977,99.525,-0.0041859
36.09,376.562,11.977,99.522,-0.0042865
36.14,377.062,11.976,99.52,-0.0044927
36.19,377.562,11.976,99.518,-0.0049592
36.24,378.062,11.976,99.515,-0.0045133
36.29,378.562,11.976,99.513,-0.0047770
36.34,379.062,11.975,99.511,-0.0047304
36.4,379.562,11.975,99.509,-0.0053908
36.39,380.063,11.975,99.509,-0.0052171
36.39,380.563,11.975,99.509,-0.0052171
36.39,381.063,11.975,99.509,-0.0052171
36.39,381.563,11.975,99.509,-0.0052171
36.39,382.063,11.975,99.509,-0.0052171
36.39,382.563,11.975,99.509,-0.0052171
36.39,383.063,11.975,99.509,-0.0052171
36.39,383.563,11.975,99.509,-0.0052171
36.39,384.063,11.975,99.509,-0.0052171
36.39,384.563,11.975,99.509,-0.0052171
36.39,385.063,11.975,99.509,-0.0052171
36.39,385.563,11.975,99.509,-0.0052171
36.39,386.064,11.975,99.509,-0.0052171
36.39,386.564,11.975,99.509,-0.0052171
36.39,387.064,11.975,99.509,-0.0052171
36.39,387.564,11.975,99.509,-0.0052171
36.39,388.064,11.975,99.509,-0.0052171
36.39,388.564,11.975,99.509,-0.0052171
36.39,389.064,11.975,99.509,-0.0052171
36.39,389.564,11.975,99.509,-0.0052171
36.39,390.064,11.975,99.509,-0.0052171
36.39,390.564,11.975,99.509,-0.0052171
36.39,391.064,11.975,99.509,-0.0052171
36.39,391.565,11.975,99.509,-0.0052171
36.39,392.065,11.975,99.509,-0.0052171
36.39,392.565,11.975,99.509,-0.0052171
36.39,393.065,11.975,99.509,-0.0052171
36.39,393.565,11.975,99.509,-0.0052171
36.39,394.065,11.975,99.509,-0.0052171
36.39,394.565,11.975,99.509,-0.0052171
36.39,395.065,11.975,99.509,-0.0052171
36.39,395.565,11.975,99.509,-0.0052171
36.39,396.065,11.975,99.509,-0.0052171
36.39,396.565,11.975,99.509,-0.0052171
36.39,397.066,11.975,99.509,-0.0052171
36.39,397.566,11.975,99.509,-0.0052171
36.39,398.066,11.975,99.509,-0.0052171
36.39,398.566,11.975,99.509,-0.0052171
36.39,399.066,11.975,99.509,-0.0052171
36.39,399.566,11.975,99.509,-0.0052171
36.39,400.066,11.975,99.509,-0.0052171
36.39,400.566,11.975,99.509,-0.0052171
36.39,401.066,11.975,99.509,-0.0052171
36.39,401.566,11.975,99.509,-0.0052171
36.39,402.066,11.975,99.509,-0.0052171
36.39,402.567,11.975,99.509,-0.0052171
36.39,403.067,11.975,99.509,-0.0052171
36.39,403.567,11.975,99.509,-0.0052171
36.39,404.067,11.975,99.509,-0.0052171
36.39,404.567,11.975,99.509,-0.0052171
36.39,405.067,11.975,99.509,-0.0052171
36.39,405.567,11.975,99.509,-0.0052171
36.39,406.067,11.975,99.509,-0.0052171
36.39,406.567,11.975,99.509,-0.0052171
36.39,407.067,11.975,99.509,-0.0052171
36.39,407.567,11.975,99.509,-0.0052171
36.39,408.068,11.975,99.509,-0.0052171
36.39,408.568,11.975,99.509,-0.0052171
36.39,409.068,11.975,99.509,-0.0052171
36.39,409.568,11.975,99.509,-0.0052171
36.39,410.068,11.975,99.509,-0.0052171
36.39,410.568,11.975,99.509,-0.0052171
36.39,411.068,11.975,99.509,-0.0052171
36.39,411.568,11.975,99.509,-0.0052171
36.39,412.068,11.975,99.509,-0.0052171
36.39,412.568,11.975,99.509,-0.0052171
36.39,413.068,11.975,99.509,-0.0052171
36.39,413.568,11.975,99.509,-0.0052171
36.39,414.069,11.975,99.509,-0.0052171
36.39,414.569,11.975,99.509,-0.0052171
36.39,415.069,11.975,99.509,-0.0052171
36.39,415.569,11.975,99.509,-0.0052171
36.39,416.069,11.975,99.509,-0.0052171
36.39,416.569,11.975,99.509,-0.0052171
36.39,417.069,11.975,99.509,-0.0052171
36.39,417.569,11.975,99.509,-0.0052171
36.39,418.069,11.975,99.509,-0.0052171
36.39,418.569,11.975,99.509,-0.0052171
36.39,419.069,11.975,99.509,-0.0052171
36.39,419.57,11.975,99.509,-0.0052171
36.39,420.07,11.975,99.509,-0.0052171
36.39,420.57,11.975,99.509,-0.0052171
36.39,421.07,11.975,99.509,-0.0052171
36.39,421.57,11.975,99.509,-0.0052171
36.39,422.07,11.975,99.509,-0.0052171
36.39,422.57,11.975,99.509,-0.0052171
36.39,423.07,11.975,99.509,-0.0052171
36.39,423.57,11.975,99.509,-0.0052171
36.39,424.07,11.975,99.509,-0.0052171
36.39,424.57,11.975,99.509,-0.0052171
36.39,425.071,11.975,99.509,-0.0052171
36.39,425.571,11.975,99.509,-0.0052171
36.39,426.071,11.975,99.509,-0.0052171
36.39,426.571,11.975,99.509,-0.0052171
36.39,427.071,11.975,99.509,-0.0052171
36.39,427.571,11.975,99.509,-0.0052171
36.39,428.071,11.975,99.509,-0.0052171
36.39,428.571,11.975,99.509,-0.0052171
36.39,429.071,11.975,99.509,-0.0052171
36.39,429.571,11.975,99.509,-0.0052171
36.39,430.071,11.975,99.509,-0.0052171
36.39,430.572,11.975,99.509,-0.0052171
36.39,431.072,11.975,99.509,-0.0052171
36.39,431.572,11.975,99.509,-0.0052171
36.39,432.072,11.975,99.509,-0.0052171
36.39,432.572,11.975,99.509,-0.0052171
36.39,433.072,11.975,99.509,-0.0052171
36.39,433.572,11.975,99.509,-0.0052171
36.39,434.072,11.975,99.509,-0.0052171
36.39,434.572,11.975,99.509,-0.0052171
36.39,435.072,11.975,99.509,-0.0052171
36.39,435.572,11.975,99.509,-0.0052171
36.39,436.073,11.975,99.509,-0.0052171
36.39,436.573,11.975,99.509,-0.0052171
36.39,437.073,11.975,99.509,-0.0052171
36.39,437.573,11.975,99.509,-0.0052171
36.39,438.073,11.975,99.509,-0.0052171
36.39,438.573,11.975,99.509,-0.0052171
36.39,439.073,11.975,99.509,-0.0052171
36.39,439.573,11.975,99.509,-0.0052171
36.39,440.073,11.975,99.509,-0.0052171
36.39,440.573,11.975,99.509,-0.0052171
36.39,441.073,11.975,99.509,-0.0052171
36.39,441.573,11.975,99.509,-0.0052171
36.39,442.074,11.975,99.509,-0.0052171
36.39,442.574,11.975,99.509,-0.0052171
36.39,443.074,11.975,99.509,-0.0052171
36.39,443.574,11.975,99.509,-0.0052171
36.39,444.074,11.975,99.509,-0.0052171
36.39,444.574,11.975,99.509,-0.0052171
36.39,445.074,11.975,99.509,-0.0052171
36.39,445.574,11.975,99.509,-0.0052171
36.39,446.074,11.975,99.509,-0.0052171
36.39,446.574,11.975,99.509,-0.0052171
36.39,447.074,11.975,99.509,-0.0052171
36.39,447.575,11.975,99.509,-0.0052171
36.39,448.075,11.975,99.509,-0.0052171
36.39,448.575,11.975,99.509,-0.0052171
36.39,449.075,11.975,99.509,-0.0052171
36.39,449.575,11.975,99.509,-0.0052171
36.39,450.075,11.975,99.509,-0.0052171
36.39,450.575,11.975,99.509,-0.0052171
36.39,451.075,11.975,99.509,-0.0052171
36.39,451.575,11.975,99.509,-0.0052171
36.39,452.075,11.975,99.509,-0.0052171
36.39,452.575,11.975,99.509,-0.0052171
36.39,453.076,11.975,99.509,-0.0052171
36.39,453.576,11.975,99.509,-0.0052171
36.39,454.076,11.975,99.509,-0.0052171
36.39,454.576,11.975,99.509,-0.0052171
36.39,455.076,11.975,99.509,-0.0052171
36.39,455.576,11.975,99.509,-0.0052171
36.39,456.076,11.975,99.509,-0.0052171
36.39,456.576,11.975,99.509,-0.0052171
36.39,457.076,11.975,99.509,-0.0052171
36.39,457.576,11.975,99.509,-0.0052171
36.39,458.076,11.975,99.509,-0.0052171
36.39,458.577,11.975,99.509,-0.0052171
36.39,459.077,11.975,99.509,-0.0052171
36.39,459.577,11.975,99.509,-0.0052171
36.39,460.077,11.975,99.509,-0.0052171
36.39,460.577,11.975,99.509,-0.0052171
36.39,461.077,11.975,99.509,-0.0052171
36.39,461.577,11.975,99.509,-0.0052171
36.39,462.077,11.975,99.509,-0.0052171
36.39,462.577,11.975,99.509,-0.0052171
36.39,463.077,11.975,99.509,-0.0052171
36.39,463.577,11.975,99.509,-0.0052171
36.39,464.078,11.975,99.509,-0.0052171
36.39,464.578,11.975,99.509,-0.0052171
36.39,465.078,11.975,99.509,-0.0052171
36.39,465.578,11.975,99.509,-0.0052171
36.39,466.078,11.975,99.509,-0.0052171
36.39,466.578,11.975,99.509,-0.0052171
36.39,467.078,11.975,99.509,-0.0052171
36.39,467.578,11.975,99.509,-0.0052171
36.39,468.078,11.975,99.509,-0.0052171
36.39,468.578,11.975,99.509,-0.0052171
36.39,469.078,11.975,99.509,-0.0052171
36.39,469.578,11.975,99.509,-0.0052171
36.39,470.079,11.975,99.509,-0.0052171
36.39,470.579,11.975,99.509,-0.0052171
36.39,471.079,11.975,99.509,-0.0052171
36.39,471.579,11.975,99.509,-0.0052171
36.39,472.079,11.975,99.509,-0.0052171
36.39,472.579,11.975,99.509,-0.0052171
36.39,473.079,11.975,99.509,-0.0052171
36.39,473.579,11.975,99.509,-0.0052171
36.39,474.079,11.975,99.509,-0.0052171
36.39,474.579,11.975,99.509,-0.0052171
36.39,475.079,11.975,99.509,-0.0052171
36.39,475.58,11.975,99.509,-0.0052171
36.39,476.08,11.975,99.509,-0.0052171
36.39,476.58,11.975,99.509,-0.0052171
36.39,477.08,11.975,99.509,-0.0052171
36.39,477.58,11.975,99.509,-0.0052171
36.39,478.08,11.975,99.509,-0.0052171
36.39,478.58,11.975,99.509,-0.0052171
36.39,479.08,11.975,99.509,-0.0052171
36.39,479.58,11.975,99.509,-0.0052171
36.39,480.08,11.975,99.509,-0.0052171
36.39,480.58,11.975,99.509,-0.0052171
36.39,481.081,11.975,99.509,-0.0052171
36.39,481.581,11.975,99.509,-0.0052171
36.39,482.081,11.975,99.509,-0.0052171
36.39,482.581,11.975,99.509,-0.0052171
36.39,483.081,11.975,99.509,-0.0052171
36.39,483.581,11.975,99.509,-0.0052171
36.39,484.081,11.975,99.509,-0.0052171
36.39,484.581,11.975,99.509,-0.0052171
36.39,485.081,11.975,99.509,-0.0052171
36.39,485.581,11.975,99.509,-0.0052171
36.39,486.081,11.975,99.509,-0.0052171
36.39,486.582,11.975,99.509,-0.0052171
36.39,487.082,11.975,99.509,-0.0052171
36.39,487.582,11.975,99.509,-0.0052171
36.39,488.082,11.975,99.509,-0.0052171
36.39,488.582,11.975,99.509,-0.0052171
36.39,489.082,11.975,99.509,-0.0052171
36.39,489.582,11.975,99.509,-0.0052171
36.39,490.082,11.975,99.509,-0.0052171
36.39,490.582,11.975,99.509,-0.0052171
36.39,491.082,11.975,99.509,-0.0052171
36.39,491.582,11.975,99.509,-0.0052171
36.39,492.083,11.975,99.509,-0.0052171
36.39,492.583,11.975,99.509,-0.0052171
36.39,493.083,11.975,99.509,-0.0052171
36.39,493.583,11.975,99.509,-0.0052171
36.39,494.083,11.975,99.509,-0.0052171
36.39,494.583,11.975,99.509,-0.0052171
36.39,495.083,11.975,99.509,-0.0052171
36.39,495.583,11.975,99.509,-0.0052171
36.39,496.083,11.975,99.509,-0.0052171
36.39,496.583,11.975,99.509,-0.0052171
36.39,497.083,11.975,99.509,-0.0052171
36.39,497.583,11.975,99.509,-0.0052171
36.39,498.084,11.975,99.509,-0.0052171
36.39,498.584,11.975,99.509,-0.0052171
36.39,499.084,11.975,99.509,-0.0052171
36.39,499.584,11.975,99.509,-0.0052171
36.39,500.084,11.975,99.509,-0.0052171
36.39,500.584,11.975,99.509,-0.0052171
36.39,501.084,11.975,99.509,-0.0052171
36.39,501.584,11.975,99.509,-0.0052171
36.39,502.084,11.975,99.509,-0.0052171
36.39,502.584,11.975,99.509,-0.0052171
36.39,503.084,11.975,99.509,-0.0052171
36.39,503.585,11.975,99.509,-0.0052171
36.39,504.085,11.975,99.509,-0.0052171
36.39,504.585,11.975,99.509,-0.0052171
36.39,505.085,11.975,99.509,-0.0052171
36.39,505.585,11.975,99.509,-0.0052171
36.39,506.085,11.975,99.509,-0.0052171
36.39,506.585,11.975,99.509,-0.0052171
36.39,507.085,11.975,99.509,-0.0052171
36.39,507.585,11.975,99.509,-0.0052171
36.39,508.085,11.975,99.509,-0.0052171
36.39,508.585,11.975,99.509,-0.0052171
36.39,509.086,11.975,99.509,-0.0052171
36.39,509.586,11.975,99.509,-0.0052171
36.39,510.086,11.975,99.509,-0.0052171
36.39,510.586,11.975,99.509,-0.0052171
36.39,511.086,11.975,99.509,-0.0052171
36.39,511.586,11.975,99.509,-0.0052171
36.39,512.086,11.975,99.509,-0.0052171
36.39,512.586,11.975,99.509,-0.0052171
36.39,513.086,11.975,99.509,-0.0052171
36.39,513.586,11.975,99.509,-0.0052171
36.39,514.086,11.975,99.509,-0.0052171
36.39,514.587,11.975,99.509,-0.0052171
36.39,515.087,11.975,99.509,-0.0052171
36.39,515.587,11.975,99.509,-0.0052171
36.39,516.087,11.975,99.509,-0.0052171
36.39,516.587,11.975,99.509,-0.0052171
36.39,517.087,11.975,99.509,-0.0052171
36.39,517.587,11.975,99.509,-0.0052171
36.39,518.087,11.975,99.509,-0.0052171
36.39,518.587,11.975,99.509,-0.0052171
36.39,519.087,11.975,99.509,-0.0052171
36.39,519.587,11.975,99.509,-0.0052171
36.39,520.088,11.975,99.509,-0.0052171
36.39,520.588,11.975,99.509,-0.0052171
36.39,521.088,11.975,99.509,-0.0052171
36.39,521.588,11.975,99.509,-0.0052171
36.39,522.088,11.975,99.509,-0.0052171
36.39,522.588,11.975,99.509,-0.0052171
36.39,523.088,11.975,99.509,-0.0052171
36.39,523.588,11.975,99.509,-0.0052171
36.39,524.088,11.975,99.509,-0.0052171
36.39,524.588,11.975,99.509,-0.0052171
36.39,525.088,11.975,99.509,-0.0052171
36.39,525.588,11.975,99.509,-0.0052171
36.39,526.089,11.975,99.509,-0.0052171
36.39,526.589,11.975,99.509,-0.0052171
36.39,527.089,11.975,99.509,-0.0052171
36.39,527.589,11.975,99.509,-0.0052171
36.39,528.089,11.975,99.509,-0.0052171
36.39,528.589,11.975,99.509,-0.0052171
36.39,529.089,11.975,99.509,-0.0052171
36.39,529.589,11.975,99.509,-0.0052171
36.39,530.089,11.975,99.509,-0.0052171
36.39,530.589,11.975,99.509,-0.0052171
36.39,531.089,11.975,99.509,-0.0052171
36.39,531.59,11.975,99.509,-0.0052171
36.39,532.09,11.975,99.509,-0.0052171
36.39,532.59,11.975,99.509,-0.0052171
36.39,533.09,11.975,99.509,-0.0052171
36.39,533.59,11.975,99.509,-0.0052171
36.39,534.09,11.975,99.509,-0.0052171
36.39,534.59,11.975,99.509,-0.0052171
36.39,535.09,11.975,99.509,-0.0052171
36.39,535.59,11.975,99.509,-0.0052171
36.39,536.09,11.975,99.509,-0.0052171
36.39,536.59,11.975,99.509,-0.0052171
36.39,537.091,11.975,99.509,-0.0052171
36.39,537.591,11.975,99.509,-0.0052171
36.39,538.091,11.975,99.509,-0.0052171
36.39,538.591,11.975,99.509,-0.0052171
36.39,539.091,11.975,99.509,-0.0052171
36.39,539.591,11.975,99.509,-0.0052171
36.39,540.091,11.975,99.509,-0.0052171
36.39,540.591,11.975,99.509,-0.0052171
36.39,541.091,11.975,99.509,-0.0052171
36.39,541.591,11.975,99.509,-0.0052171
36.39,542.091,11.975,99.509,-0.0052171
36.39,542.592,11.975,99.509,-0.0052171
36.39,543.092,11.975,99.509,-0.0052171
36.39,543.592,11.975,99.509,-0.0052171
36.39,544.092,11.975,99.509,-0.0052171
36.39,544.592,11.975,99.509,-0.0052171
36.39,545.092,11.975,99.509,-0.0052171
36.39,545.592,11.975,99.509,-0.0052171
36.39,546.092,11.975,99.509,-0.0052171
36.39,546.592,11.975,99.509,-0.0052171
36.39,547.092,11.975,99.509,-0.0052171
36.39,547.592,11.975,99.509,-0.0052171
36.39,548.093,11.975,99.509,-0.0052171
36.39,548.593,11.975,99.509,-0.0052171
36.39,549.093,11.975,99.509,-0.0052171
36.39,549.593,11.975,99.509,-0.0052171
36.39,550.093,11.975,99.509,-0.0052171
36.39,550.593,11.975,99.509,-0.0052171
36.39,551.093,11.975,99.509,-0.0052171
36.39,551.593,11.975,99.509,-0.0052171
36.39,552.093,11.975,99.509,-0.0052171
36.39,552.593,11.975,99.509,-0.0052171
36.39,553.093,11.975,99.509,-0.0052171
36.39,553.593,11.975,99.509,-0.0052171
36.39,554.094,11.975,99.509,-0.0052171
36.39,554.594,11.975,99.509,-0.0052171
36.39,555.094,11.975,99.509,-0.0052171
36.39,555.594,11.975,99.509,-0.0052171
36.39,556.094,11.975,99.509,-0.0052171
36.39,556.594,11.975,99.509,-0.0052171
36.39,557.094,11.975,99.509,-0.0052171
36.39,557.594,11.975,99.509,-0.0052171
36.39,558.094,11.975,99.509,-0.0052171
36.39,558.594,11.975,99.509,-0.0052171
36.39,559.094,11.975,99.509,-0.0052171
36.39,559.595,11.975,99.509,-0.0052171
36.39,560.095,11.975,99.509,-0.0052171
36.39,560.595,11.975,99.509,-0.0052171
36.39,561.095,11.975,99.509,-0.0052171
36.39,561.595,11.975,99.509,-0.0052171
36.39,562.095,11.975,99.509,-0.0052171
36.39,562.595,11.975,99.509,-0.0052171
36.39,563.095,11.975,99.509,-0.0052171
36.39,563.595,11.975,99.509,-0.0052171
36.39,564.095,11.975,99.509,-0.0052171
36.39,564.595,11.975,99.509,-0.0052171
36.39,565.096,11.975,99.509,-0.0052171
36.39,565.596,11.975,99.509,-0.0052171
36.39,566.096,11.975,99.509,-0.0052171
36.39,566.596,11.975,99.509,-0.0052171
36.39,567.096,11.975,99.509,-0.0052171
36.39,567.596,11.975,99.509,-0.0052171
36.39,568.096,11.975,99.509,-0.0052171
36.39,568.596,11.975,99.509,-0.0052171
36.39,569.096,11.975,99.509,-0.0052171
36.39,569.596,11.975,99.509,-0.0052171
36.39,570.096,11.975,99.509,-0.0052171
36.39,570.597,11.975,99.509,-0.0052171
36.39,571.097,11.975,99.509,-0.0052171
36.39,571.597,11.975,99.509,-0.0052171
36.39,572.097,11.975,99.509,-0.0052171
36.39,572.597,11.975,99.509,-0.0052171
36.39,573.097,11.975,99.509,-0.0052171
36.39,573.597,11.975,99.509,-0.0052171
36.39,574.097,11.975,99.509,-0.0052171
36.39,574.597,11.975,99.509,-0.0052171
36.39,575.097,11.975,99.509,-0.0052171
36.39,575.597,11.975,99.509,-0.0052171
36.39,576.098,11.975,99.509,-0.0052171
36.39,576.598,11.975,99.509,-0.0052171
36.39,577.098,11.975,99.509,-0.0052171
36.39,577.598,11.975,99.509,-0.0052171
36.39,578.098,11.975,99.509,-0.0052171
36.39,578.598,11.975,99.509,-0.0052171
36.39,579.098,11.975,99.509,-0.0052171
36.39,579.598,11.975,99.509,-0.0052171
36.39,580.098,11.975,99.509,-0.0052171
36.39,580.598,11.975,99.509,-0.0052171
36.39,581.098,11.975,99.509,-0.0052171
36.39,581.598,11.975,99.509,-0.0052171
36.39,582.099,11.975,99.509,-0.0052171
36.39,582.599,11.975,99.509,-0.0052171
36.39,583.099,11.975,99.509,-0.0052171
36.39,583.599,11.975,99.509,-0.0052171
36.39,584.099,11.975,99.509,-0.0052171
36.39,584.599,11.975,99.509,-0.0052171
36.39,585.099,11.975,99.509,-0.0052171
36.39,585.599,11.975,99.509,-0.0052171
36.39,586.099,11.975,99.509,-0.0052171
36.39,586.599,11.975,99.509,-0.0052171
36.39,587.099,11.975,99.509,-0.0052171
36.39,587.6,11.975,99.509,-0.0052171
36.39,588.1,11.975,99.509,-0.0052171
36.39,588.6,11.975,99.509,-0.0052171
36.39,589.1,11.975,99.509,-0.0052171
36.39,589.6,11.975,99.509,-0.0052171
36.39,590,11.975,99.509,-0.0052171