File: R/rHDPE_App/app/www/Output/TGA/Condensed_Data/Resin12_0_.csv
0.9100000,30,16.176,100.031,0.0036951
0.9700000,30.5001,16.176,100.033,0.0039938
1.03,31.0002,16.177,100.034,0.0057141
1.09,31.5003,16.177,100.036,0.0034827
1.15,32.0004,16.177,100.037,0.0014807
1.2,32.5004,16.177,100.038,0.0016735
1.26,33.0005,16.177,100.039,0.0032105
1.32,33.5006,16.178,100.04,0.0001539
1.37,34.0007,16.178,100.041,0.0021371
1.43,34.5008,16.178,100.042,0.0008593
1.48,35.0009,16.178,100.043,0.0022108
1.54,35.501,16.178,100.043,0.0001498
1.59,36.0011,16.178,100.044,0.0008451
1.65,36.5012,16.178,100.045,0.0021778
1.7,37.0013,16.178,100.045,-0.0000493
1.75,37.5013,16.178,100.046,0.0022585
1.81,38.0014,16.179,100.046,0.0013706
1.86,38.5015,16.179,100.047,-0.0000488
1.91,39.0016,16.179,100.047,0.0017530
1.97,39.5017,16.179,100.048,0.0003887
2.02,40.0018,16.179,100.048,0.0001940
2.07,40.5019,16.179,100.049,0.0012587
2.13,41.002,16.179,100.049,0.0014504
2.18,41.5021,16.179,100.05,-0.0001448
2.23,42.0021,16.179,100.05,0.0012539
2.28,42.5022,16.179,100.051,0.0009630
2.34,43.0023,16.179,100.051,0.0011066
2.39,43.5024,16.179,100.052,0.0017292
2.44,44.0025,16.18,100.052,0.0013910
2.49,44.5026,16.18,100.053,0.0016283
2.55,45.0027,16.18,100.054,0.0004784
2.6,45.5028,16.18,100.054,0.0006685
2.65,46.0029,16.18,100.054,0.0010484
2.7,46.5029,16.18,100.055,0.0013796
2.76,47.003,16.18,100.056,0.0006652
2.81,47.5031,16.18,100.056,0.0000474
2.86,48.0032,16.18,100.056,0.0013266
2.91,48.5033,16.18,100.057,0.0009934
2.96,49.0034,16.18,100.058,0.0014170
3.01,49.5035,16.18,100.058,0.0014154
3.06,50.0036,16.181,100.059,0.0003770
3.12,50.5037,16.181,100.059,0.0014124
3.17,51.0038,16.181,100.06,0.0007053
3.22,51.5038,16.181,100.06,0.0012689
3.27,52.0039,16.181,100.061,0.0011264
3.32,52.504,16.181,100.061,0.0008901
3.37,53.0041,16.181,100.062,0.0014989
3.42,53.5042,16.181,100.063,0.0010763
3.48,54.0043,16.181,100.064,0.0018235
3.53,54.5044,16.181,100.064,0.0013553
3.58,55.0045,16.182,100.065,0.0013073
3.63,55.5046,16.182,100.066,0.0008394
3.68,56.0046,16.182,100.066,0.0011187
3.73,56.5047,16.182,100.067,0.0009312
3.78,57.0048,16.182,100.067,0.0013959
3.83,57.5049,16.182,100.068,0.0013479
3.88,58.005,16.182,100.069,0.0009285
3.93,58.5051,16.182,100.069,0.0010212
3.98,59.0052,16.182,100.069,0.0011136
4.03,59.5053,16.182,100.07,0.0006950
4.09,60.0054,16.182,100.07,0.0010189
4.14,60.5054,16.182,100.071,0.0002314
4.19,61.0055,16.183,100.071,0.0011105
4.24,61.5056,16.183,100.072,0.0009246
4.29,62.0057,16.183,100.072,0.0006933
4.34,62.5058,16.183,100.072,0.0007859
4.39,63.0059,16.183,100.073,0.0008777
4.44,63.506,16.183,100.073,0.0006925
4.49,64.0061,16.183,100.074,0.0008304
4.54,64.5062,16.183,100.074,0.0005073
4.59,65.0063,16.183,100.075,0.0007840
4.64,65.5063,16.183,100.075,0.0008756
4.69,66.0064,16.183,100.076,0.0006450
4.74,66.5065,16.183,100.076,0.0010596
4.79,67.0066,16.183,100.077,0.0009213
4.84,67.5067,16.183,100.077,0.0008748
4.89,68.0068,16.184,100.077,0.0011967
4.94,68.5069,16.184,100.078,0.0012887
4.99,69.007,16.184,100.078,0.0007818
5.04,69.5071,16.184,100.079,0.0010574
5.09,70.0071,16.184,100.079,0.0007350
5.14,70.5072,16.184,100.079,0.0004133
5.19,71.0073,16.184,100.08,0.0004590
5.24,71.5074,16.184,100.08,0.0013760
5.29,72.0075,16.184,100.081,0.0004587
5.34,72.5076,16.184,100.081,0.0005503
5.39,73.0077,16.184,100.081,0.0005499
5.44,73.5078,16.184,100.082,0.0005044
5.49,74.0079,16.184,100.082,0.0008709
5.54,74.5079,16.184,100.083,0.0006876
5.59,75.008,16.184,100.083,0.0005959
5.64,75.5081,16.184,100.083,0.0010088
5.69,76.0082,16.185,100.084,0.0004126
5.74,76.5083,16.185,100.084,0.0006877
5.79,77.0084,16.185,100.084,0.0006874
5.84,77.5085,16.185,100.085,0.0007327
5.89,78.0086,16.185,100.085,0.0007786
5.94,78.5087,16.185,100.086,0.0007781
5.99,79.0088,16.185,100.086,0.0004580
6.04,79.5088,16.185,100.086,0.0008240
6.09,80.0089,16.185,100.087,0.0010992
6.14,80.509,16.185,100.087,0.0005957
6.19,81.0091,16.185,100.087,0.0007791
6.24,81.5092,16.185,100.087,0.0005041
6.29,82.0093,16.185,100.088,0.0004125
6.34,82.5094,16.185,100.088,0.0004120
6.39,83.0095,16.185,100.088,0.0008234
6.44,83.5096,16.185,100.089,0.0002745
6.49,84.0096,16.185,100.089,-0.0000000
6.54,84.5097,16.185,100.089,0.0003203
6.59,85.0098,16.185,100.089,0.0006865
6.64,85.5099,16.186,100.09,0.0006862
6.7,86.01,16.186,100.09,0.0010988
6.75,86.5101,16.186,100.09,0.0003203
6.8,87.0102,16.186,100.09,0.0003205
6.85,87.5103,16.186,100.091,0.0007777
6.9,88.0104,16.186,100.091,0.0006863
6.95,88.5104,16.186,100.091,0.0005493
7,89.0105,16.186,100.091,0.0006866
7.05,89.5106,16.186,100.092,0.0004577
7.1,90.0107,16.186,100.092,0.0011438
7.15,90.5108,16.186,100.092,0.0005947
7.2,91.0109,16.186,100.092,0.0010530
7.25,91.511,16.186,100.093,0.0004574
7.3,92.0111,16.186,100.093,0.0005942
7.35,92.5112,16.186,100.093,0.0000915
7.4,93.0113,16.186,100.093,0.0000000
7.45,93.5113,16.186,100.094,0.0007782
7.5,94.0114,16.186,100.094,0.0001830
7.54,94.5115,16.186,100.094,0.0000458
7.59,95.0116,16.186,100.094,-0.0002287
7.64,95.5117,16.186,100.094,0.0000915
7.69,96.0118,16.186,100.094,0.0001829
7.74,96.5119,16.186,100.095,0.0000000
7.79,97.012,16.186,100.095,0.0001829
7.84,97.5121,16.186,100.095,0.0004574
7.89,98.0121,16.186,100.095,0.0001373
7.94,98.5122,16.186,100.095,0.0007324
7.99,99.0123,16.186,100.095,0.0000915
8.04,99.5124,16.186,100.095,-0.0001373
8.09,100.013,16.186,100.096,0.0001830
8.14,100.513,16.187,100.096,0.0005036
8.19,101.013,16.187,100.096,-0.0000457
8.24,101.513,16.187,100.096,0.0006869
8.29,102.013,16.187,100.096,0.0004120
8.34,102.513,16.187,100.096,0.0002745
8.39,103.013,16.187,100.096,-0.0000000
8.44,103.513,16.187,100.097,0.0001831
8.49,104.013,16.187,100.097,-0.0000915
8.54,104.513,16.187,100.097,0.0000457
8.59,105.013,16.187,100.097,0.0006869
8.64,105.513,16.187,100.097,0.0001830
8.69,106.014,16.187,100.097,0.0000000
8.74,106.514,16.187,100.097,0.0002289
8.79,107.014,16.187,100.097,0.0005036
8.84,107.514,16.187,100.097,0.0000000
8.89,108.014,16.187,100.097,0.0000916
8.94,108.514,16.187,100.098,0.0001374
8.99,109.014,16.187,100.098,0.0000000
9.04,109.514,16.187,100.098,0.0001373
9.09,110.014,16.187,100.098,0.0004122
9.14,110.514,16.187,100.098,0.0000000
9.19,111.014,16.187,100.098,0.0000916
9.24,111.515,16.187,100.098,-0.0001374
9.29,112.015,16.187,100.098,0.0004122
9.34,112.515,16.187,100.098,-0.0002289
9.39,113.015,16.187,100.098,-0.0000458
9.44,113.515,16.187,100.098,-0.0001832
9.49,114.015,16.187,100.098,0.0000000
9.54,114.515,16.187,100.099,0.0000915
9.59,115.015,16.187,100.099,0.0001373
9.64,115.515,16.187,100.099,0.0001831
9.69,116.015,16.187,100.099,-0.0005039
9.74,116.515,16.187,100.099,0.0000917
9.79,117.016,16.187,100.099,-0.0000917
9.84,117.516,16.187,100.099,0.0000916
9.89,118.016,16.187,100.099,0.0004125
9.94,118.516,16.187,100.099,0.0000916
9.99,119.016,16.187,100.099,0.0000000
10.04,119.516,16.187,100.099,0.0002749
10.09,120.016,16.187,100.099,-0.0002291
10.15,120.516,16.187,100.099,0.0000459
10.2,121.016,16.187,100.099,0.0000917
10.25,121.516,16.187,100.099,0.0002749
10.3,122.016,16.187,100.099,0.0001829
10.35,122.517,16.187,100.099,0.0002291
10.4,123.017,16.187,100.099,0.0005042
10.45,123.517,16.187,100.1,0.0002750
10.5,124.017,16.187,100.1,0.0001376
10.55,124.517,16.187,100.1,-0.0000917
10.6,125.017,16.187,100.1,-0.0001374
10.65,125.517,16.187,100.1,-0.0000000
10.7,126.017,16.187,100.1,0.0001375
10.75,126.517,16.187,100.1,0.0001376
10.8,127.017,16.187,100.1,-0.0000918
10.85,127.517,16.187,100.1,0.0003210
10.9,128.018,16.187,100.1,0.0000000
10.95,128.518,16.187,100.1,0.0000917
11,129.018,16.187,100.101,0.0001375
11.05,129.518,16.187,100.101,0.0001375
11.1,130.018,16.187,100.101,0.0005043
11.15,130.518,16.187,100.101,0.0004585
11.2,131.018,16.187,100.101,0.0006878
11.25,131.518,16.187,100.101,0.0005506
11.3,132.018,16.187,100.101,0.0002292
11.35,132.518,16.187,100.101,0.0006881
11.4,133.018,16.187,100.102,0.0001835
11.45,133.518,16.188,100.102,0.0002748
11.5,134.019,16.188,100.102,0.0005495
11.55,134.519,16.188,100.102,0.0005040
11.6,135.019,16.188,100.102,0.0000000
11.65,135.519,16.188,100.103,0.0003207
11.7,136.019,16.188,100.103,0.0003209
11.75,136.519,16.188,100.103,0.0004126
11.8,137.019,16.188,100.103,-0.0000916
11.85,137.519,16.188,100.103,-0.0003665
11.9,138.019,16.188,100.103,0.0001374
11.95,138.519,16.188,100.103,0.0004121
12,139.019,16.188,100.103,0.0000000
12.05,139.52,16.188,100.103,-0.0001826
12.1,140.02,16.188,100.103,-0.0002283
12.15,140.52,16.188,100.103,-0.0006851
12.2,141.02,16.188,100.103,-0.0003193
12.25,141.52,16.188,100.103,-0.0005916
12.3,142.02,16.188,100.102,-0.0005004
12.35,142.52,16.188,100.102,-0.0006850
12.4,143.02,16.187,100.102,-0.0005027
12.45,143.52,16.187,100.101,-0.0016907
12.5,144.02,16.187,100.1,-0.0016443
12.55,144.52,16.187,100.1,-0.0019156
12.6,145.021,16.187,100.099,-0.0014594
12.65,145.521,16.187,100.098,-0.0011837
12.7,146.021,16.187,100.097,-0.0018663
12.75,146.521,16.187,100.096,-0.0018662
12.8,147.021,16.186,100.095,-0.0018674
12.85,147.521,16.186,100.094,-0.0014561
12.89,148.021,16.186,100.094,-0.0016371
12.94,148.521,16.186,100.093,-0.0013214
12.99,149.021,16.186,100.092,-0.0017304
13.04,149.521,16.186,100.091,-0.0015055
13.09,150.021,16.186,100.091,-0.0011899
13.14,150.522,16.186,100.09,-0.0010501
13.19,151.022,16.185,100.089,-0.0014175
13.24,151.522,16.185,100.089,-0.0007789
13.29,152.022,16.185,100.088,-0.0010565
13.34,152.522,16.185,100.088,-0.0013352
13.39,153.022,16.185,100.087,-0.0011065
13.44,153.522,16.185,100.087,-0.0011050
13.5,154.022,16.185,100.086,-0.0005999
13.55,154.522,16.185,100.086,-0.0006444
13.6,155.022,16.185,100.085,-0.0006430
13.65,155.522,16.185,100.085,-0.0008726
13.7,156.023,16.185,100.084,-0.0011953
13.75,156.523,16.185,100.084,-0.0007813
13.8,157.023,16.185,100.084,-0.0003661
13.85,157.523,16.185,100.083,-0.0004594
13.9,158.023,16.184,100.083,-0.0006437
13.95,158.523,16.184,100.083,-0.0005947
14,159.023,16.184,100.082,-0.0007800
14.05,159.523,16.184,100.082,-0.0010087
14.1,160.023,16.184,100.081,-0.0006881
14.15,160.523,16.184,100.081,-0.0008232
14.2,161.023,16.184,100.081,-0.0010521
14.25,161.523,16.184,100.08,-0.0007820
14.3,162.024,16.184,100.08,-0.0007833
14.35,162.524,16.184,100.079,-0.0005068
14.4,163.024,16.184,100.079,-0.0006890
14.45,163.524,16.184,100.079,-0.0005519
14.5,164.024,16.184,100.078,-0.0015138
14.55,164.524,16.184,100.078,-0.0013743
14.6,165.024,16.184,100.077,-0.0008714
14.65,165.524,16.183,100.077,-0.0006893
14.7,166.024,16.183,100.076,-0.0015142
14.75,166.524,16.183,100.076,-0.0011464
14.8,167.024,16.183,100.075,-0.0011447
14.85,167.525,16.183,100.075,-0.0008684
14.9,168.025,16.183,100.074,-0.0008672
14.95,168.525,16.183,100.074,-0.0010493
15,169.025,16.183,100.073,-0.0009127
15.05,169.525,16.183,100.073,-0.0007305
15.1,170.025,16.183,100.072,-0.0013756
15.15,170.525,16.183,100.072,-0.0013834
15.2,171.025,16.183,100.071,-0.0014291
15.25,171.525,16.182,100.07,-0.0010154
15.3,172.025,16.182,100.07,-0.0009679
15.35,172.525,16.182,100.069,-0.0010131
15.4,173.026,16.182,100.069,-0.0010126
15.45,173.526,16.182,100.069,-0.0006425
15.5,174.026,16.182,100.068,-0.0009602
15.55,174.526,16.182,100.067,-0.0009122
15.6,175.026,16.182,100.067,-0.0013665
15.65,175.526,16.182,100.066,-0.0011402
15.7,176.026,16.182,100.066,-0.0011913
15.75,176.526,16.182,100.065,-0.0015565
15.8,177.026,16.181,100.064,-0.0013732
15.85,177.526,16.181,100.064,-0.0008729
15.9,178.026,16.181,100.063,-0.0011494
15.95,178.527,16.181,100.062,-0.0010555
16,179.027,16.181,100.062,-0.0017472
16.05,179.527,16.181,100.061,-0.0010120
16.1,180.027,16.181,100.06,-0.0015629
16.15,180.527,16.181,100.06,-0.0013778
16.2,181.027,16.181,100.059,-0.0013743
16.25,181.527,16.18,100.058,-0.0013705
16.3,182.027,16.18,100.058,-0.0011405
16.35,182.527,16.18,100.057,-0.0010951
16.4,183.027,16.18,100.056,-0.0014644
16.45,183.527,16.18,100.056,-0.0012850
16.5,184.028,16.18,100.055,-0.0011012
16.55,184.528,16.18,100.054,-0.0009656
16.6,185.028,16.18,100.054,-0.0011941
16.65,185.528,16.18,100.053,-0.0016964
16.7,186.028,16.179,100.052,-0.0015093
16.75,186.528,16.179,100.052,-0.0013689
16.8,187.028,16.179,100.051,-0.0014679
16.85,187.528,16.179,100.05,-0.0016462
16.9,188.028,16.179,100.049,-0.0014175
16.95,188.528,16.179,100.049,-0.0015525
17,189.028,16.179,100.048,-0.0012337
17.05,189.528,16.179,100.047,-0.0014217
17.1,190.029,16.179,100.046,-0.0013716
17.15,190.529,16.178,100.046,-0.0012811
17.2,191.029,16.178,100.045,-0.0017926
17.25,191.529,16.178,100.044,-0.0020669
17.3,192.029,16.178,100.043,-0.0015154
17.35,192.529,16.178,100.043,-0.0015559
17.4,193.029,16.178,100.042,-0.0016036
17.45,193.529,16.178,100.041,-0.0017812
17.5,194.029,16.178,100.04,-0.0012774
17.55,194.529,16.177,100.039,-0.0015041
17.6,195.029,16.177,100.039,-0.0019581
17.65,195.53,16.177,100.038,-0.0017771
17.7,196.03,16.177,100.037,-0.0015967
17.75,196.53,16.177,100.036,-0.0019661
17.8,197.03,16.177,100.035,-0.0016948
17.85,197.53,16.177,100.034,-0.0016506
17.9,198.03,16.176,100.034,-0.0012387
17.95,198.53,16.176,100.033,-0.0011934
18,199.03,16.176,100.032,-0.0018833
18.05,199.53,16.176,100.031,-0.0017470
18.1,200.03,16.176,100.03,-0.0015613
18.15,200.53,16.176,100.029,-0.0018362
18.2,201.031,16.176,100.028,-0.0020652
18.25,201.531,16.175,100.028,-0.0020642
18.3,202.031,16.175,100.027,-0.0015678
18.35,202.531,16.175,100.026,-0.0024821
18.4,203.031,16.175,100.025,-0.0014738
18.45,203.531,16.175,100.024,-0.0015599
18.5,204.031,16.175,100.023,-0.0019261
18.55,204.531,16.175,100.022,-0.0020582
18.6,205.031,16.174,100.021,-0.0020084
18.65,205.531,16.174,100.02,-0.0015516
18.7,206.031,16.174,100.019,-0.0018782
18.75,206.532,16.174,100.018,-0.0018352
18.8,207.032,16.174,100.017,-0.0018825
18.85,207.532,16.174,100.016,-0.0018365
18.9,208.032,16.174,100.015,-0.0016952
18.95,208.532,16.173,100.014,-0.0016460
19,209.032,16.173,100.013,-0.0017345
19.05,209.532,16.173,100.013,-0.0018795
19.1,210.032,16.173,100.012,-0.0022904
19.15,210.532,16.173,100.011,-0.0016944
19.2,211.032,16.173,100.01,-0.0021477
19.25,211.532,16.172,100.008,-0.0027435
19.3,212.033,16.172,100.007,-0.0021929
19.35,212.533,16.172,100.006,-0.0015584
19.4,213.033,16.172,100.005,-0.0020567
19.45,213.533,16.172,100.004,-0.0022391
19.5,214.033,16.172,100.003,-0.0017808
19.55,214.533,16.171,100.002,-0.0016436
19.6,215.033,16.171,100.001,-0.0020106
19.65,215.533,16.171,100,-0.0022900
19.7,216.033,16.171,99.999,-0.0023970
19.75,216.533,16.171,99.998,-0.0022165
19.8,217.033,16.171,99.997,-0.0024419
19.85,217.533,16.17,99.996,-0.0022963
19.9,218.034,16.17,99.995,-0.0021528
19.95,218.534,16.17,99.994,-0.0020545
20,219.034,16.17,99.993,-0.0016870
20.05,219.534,16.17,99.992,-0.0021884
20.1,220.034,16.17,99.991,-0.0019626
20.15,220.534,16.169,99.989,-0.0024778
20.2,221.034,16.169,99.988,-0.0024301
20.25,221.534,16.169,99.987,-0.0018795
20.3,222.034,16.169,99.986,-0.0026564
20.35,222.534,16.169,99.985,-0.0019683
20.4,223.034,16.168,99.984,-0.0023792
20.45,223.535,16.168,99.983,-0.0020595
20.5,224.035,16.168,99.982,-0.0021081
20.55,224.535,16.168,99.98,-0.0022467
20.6,225.035,16.168,99.979,-0.0024301
20.65,225.535,16.167,99.978,-0.0023394
20.7,226.035,16.167,99.977,-0.0019734
20.75,226.535,16.167,99.976,-0.0024319
20.8,227.035,16.167,99.975,-0.0029803
20.85,227.535,16.167,99.974,-0.0022928
20.9,228.035,16.167,99.972,-0.0024305
20.96,228.535,16.166,99.971,-0.0023842
21.01,229.036,16.166,99.97,-0.0022919
21.06,229.536,16.166,99.969,-0.0022894
21.11,230.036,16.166,99.968,-0.0022898
21.16,230.536,16.166,99.966,-0.0022555
21.21,231.036,16.165,99.965,-0.0024880
21.26,231.536,16.165,99.964,-0.0021157
21.31,232.036,16.165,99.963,-0.0023822
21.36,232.536,16.165,99.961,-0.0022843
21.41,233.036,16.165,99.96,-0.0026484
21.46,233.536,16.164,99.959,-0.0025578
21.51,234.036,16.164,99.958,-0.0026960
21.56,234.537,16.164,99.956,-0.0025648
21.61,235.037,16.164,99.955,-0.0024267
21.66,235.537,16.164,99.954,-0.0025653
21.71,236.037,16.163,99.953,-0.0022471
21.76,236.537,16.163,99.951,-0.0024283
21.81,237.037,16.163,99.95,-0.0022900
21.86,237.537,16.163,99.949,-0.0022988
21.91,238.037,16.163,99.948,-0.0029830
21.96,238.537,16.162,99.946,-0.0032087
22.01,239.037,16.162,99.945,-0.0029350
22.06,239.537,16.162,99.944,-0.0027022
22.11,240.038,16.162,99.943,-0.0021928
22.16,240.538,16.162,99.941,-0.0026431
22.21,241.038,16.161,99.94,-0.0025963
22.26,241.538,16.161,99.939,-0.0024584
22.31,242.038,16.161,99.937,-0.0026924
22.36,242.538,16.161,99.936,-0.0027846
22.41,243.038,16.16,99.935,-0.0026503
22.46,243.538,16.16,99.933,-0.0021974
22.51,244.038,16.16,99.932,-0.0025740
22.56,244.538,16.16,99.931,-0.0024839
22.61,245.038,16.16,99.929,-0.0025707
22.66,245.538,16.159,99.928,-0.0029372
22.71,246.039,16.159,99.927,-0.0027064
22.76,246.539,16.159,99.925,-0.0032119
22.81,247.039,16.159,99.924,-0.0027541
22.86,247.539,16.159,99.923,-0.0028013
22.91,248.039,16.158,99.921,-0.0027528
22.96,248.539,16.158,99.92,-0.0028873
23.01,249.039,16.158,99.918,-0.0029817
23.06,249.539,16.158,99.917,-0.0026552
23.11,250.039,16.157,99.915,-0.0030850
23.16,250.539,16.157,99.914,-0.0028015
23.21,251.039,16.157,99.912,-0.0030354
23.26,251.54,16.157,99.911,-0.0025646
23.31,252.04,16.156,99.91,-0.0031079
23.36,252.54,16.156,99.908,-0.0031972
23.41,253.04,16.156,99.907,-0.0027871
23.46,253.54,16.156,99.905,-0.0028362
23.51,254.04,16.155,99.904,-0.0030206
23.56,254.54,16.155,99.902,-0.0035247
23.61,255.04,16.155,99.901,-0.0032479
23.66,255.54,16.155,99.899,-0.0027460
23.71,256.04,16.155,99.898,-0.0024725
23.76,256.54,16.154,99.896,-0.0026654
23.81,257.041,16.154,99.895,-0.0028451
23.86,257.541,16.154,99.894,-0.0027504
23.91,258.041,16.154,99.892,-0.0027966
23.96,258.541,16.153,99.891,-0.0028388
24.01,259.041,16.153,99.889,-0.0027498
24.06,259.541,16.153,99.888,-0.0028846
24.11,260.041,16.153,99.886,-0.0030236
24.16,260.541,16.152,99.884,-0.0028430
24.21,261.041,16.152,99.883,-0.0032545
24.26,261.541,16.152,99.881,-0.0027966
24.31,262.041,16.152,99.88,-0.0032997
24.36,262.542,16.151,99.878,-0.0033914
24.41,263.042,16.151,99.877,-0.0029330
24.46,263.542,16.151,99.875,-0.0028357
24.51,264.042,16.151,99.873,-0.0029724
24.56,264.542,16.15,99.872,-0.0032450
24.61,265.042,16.15,99.87,-0.0028388
24.66,265.542,16.15,99.869,-0.0030248
24.71,266.042,16.15,99.867,-0.0030237
24.76,266.542,16.149,99.866,-0.0031634
24.81,267.042,16.149,99.864,-0.0032110
24.86,267.542,16.149,99.863,-0.0031181
24.91,268.043,16.149,99.861,-0.0032551
24.96,268.543,16.148,99.859,-0.0032527
25.01,269.043,16.148,99.858,-0.0037546
25.06,269.543,16.148,99.856,-0.0033864
25.11,270.043,16.148,99.855,-0.0035675
25.16,270.543,16.147,99.853,-0.0035275
25.21,271.043,16.147,99.851,-0.0033927
25.26,271.543,16.147,99.849,-0.0035695
25.31,272.043,16.146,99.848,-0.0037377
25.36,272.543,16.146,99.846,-0.0034070
25.41,273.043,16.146,99.844,-0.0036935
25.46,273.543,16.146,99.842,-0.0033504
25.51,274.044,16.145,99.841,-0.0033456
25.56,274.544,16.145,99.839,-0.0035714
25.61,275.044,16.145,99.837,-0.0027838
25.66,275.544,16.144,99.836,-0.0033273
25.71,276.044,16.144,99.834,-0.0037395
25.76,276.544,16.144,99.832,-0.0036669
25.81,277.044,16.144,99.83,-0.0035629
25.86,277.544,16.143,99.829,-0.0034684
25.91,278.044,16.143,99.827,-0.0042663
25.96,278.544,16.143,99.825,-0.0037122
26.01,279.044,16.142,99.823,-0.0038919
26.06,279.545,16.142,99.821,-0.0037532
26.11,280.045,16.142,99.82,-0.0035675
26.16,280.545,16.142,99.818,-0.0035714
26.21,281.045,16.141,99.816,-0.0024200
26.26,281.545,16.141,99.815,-0.0031006
26.31,282.045,16.141,99.813,-0.0035140
26.36,282.545,16.14,99.811,-0.0039726
26.41,283.045,16.14,99.809,-0.0037899
26.46,283.545,16.14,99.807,-0.0033322
26.51,284.045,16.14,99.805,-0.0035212
26.56,284.545,16.139,99.804,-0.0036192
26.61,285.046,16.139,99.802,-0.0035780
26.66,285.546,16.139,99.8,-0.0036271
26.71,286.046,16.138,99.798,-0.0037670
26.76,286.546,16.138,99.796,-0.0035859
26.81,287.046,16.138,99.794,-0.0035846
26.86,287.546,16.137,99.792,-0.0036258
26.91,288.046,16.137,99.79,-0.0042677
26.96,288.546,16.137,99.788,-0.0037580
27.01,289.046,16.136,99.786,-0.0037566
27.06,289.546,16.136,99.784,-0.0040316
27.11,290.046,16.136,99.782,-0.0039407
27.16,290.547,16.136,99.78,-0.0040314
27.21,291.047,16.135,99.779,-0.0037546
27.26,291.547,16.135,99.777,-0.0037525
27.31,292.047,16.135,99.775,-0.0041606
27.36,292.547,16.134,99.773,-0.0037934
27.41,293.047,16.134,99.771,-0.0042427
27.46,293.547,16.134,99.769,-0.0044211
27.51,294.047,16.133,99.767,-0.0042923
27.56,294.547,16.133,99.765,-0.0040241
27.61,295.047,16.133,99.763,-0.0038933
27.66,295.547,16.132,99.761,-0.0042622
27.71,296.048,16.132,99.759,-0.0043103
27.76,296.548,16.132,99.757,-0.0041727
27.81,297.048,16.131,99.755,-0.0041667
27.86,297.548,16.131,99.753,-0.0042661
27.91,298.048,16.131,99.75,-0.0038991
27.96,298.548,16.13,99.748,-0.0044455
28.01,299.048,16.13,99.746,-0.0043475
28.06,299.548,16.13,99.744,-0.0043483
28.11,300.048,16.129,99.742,-0.0040330
28.16,300.548,16.129,99.74,-0.0044905
28.21,301.048,16.129,99.738,-0.0043980
28.26,301.548,16.128,99.736,-0.0041255
28.31,302.049,16.128,99.734,-0.0044913
28.36,302.549,16.128,99.732,-0.0042155
28.41,303.049,16.127,99.729,-0.0047187
28.46,303.549,16.127,99.727,-0.0045330
28.51,304.049,16.127,99.725,-0.0041643
28.56,304.549,16.126,99.723,-0.0046703
28.61,305.049,16.126,99.721,-0.0044872
28.66,305.549,16.125,99.718,-0.0048921
28.71,306.049,16.125,99.716,-0.0041613
28.76,306.549,16.125,99.714,-0.0041148
28.81,307.049,16.124,99.712,-0.0044447
28.86,307.55,16.124,99.71,-0.0052532
28.91,308.05,16.124,99.707,-0.0045272
28.96,308.55,16.123,99.705,-0.0047075
29.01,309.05,16.123,99.703,-0.0044333
29.06,309.55,16.123,99.701,-0.0045729
29.11,310.05,16.122,99.698,-0.0046660
29.16,310.55,16.122,99.696,-0.0047248
29.21,311.05,16.121,99.694,-0.0049451
29.26,311.55,16.121,99.691,-0.0043956
29.31,312.05,16.121,99.689,-0.0045330
29.36,312.55,16.12,99.687,-0.0043064
29.41,313.051,16.12,99.684,-0.0045355
29.46,313.551,16.12,99.682,-0.0043981
29.51,314.051,16.119,99.68,-0.0049936
29.56,314.551,16.119,99.677,-0.0045330
29.61,315.051,16.118,99.675,-0.0043956
29.66,315.551,16.118,99.673,-0.0044390
29.71,316.051,16.118,99.67,-0.0042086
29.76,316.551,16.117,99.668,-0.0047593
29.81,317.051,16.117,99.666,-0.0046678
29.86,317.551,16.117,99.663,-0.0048535
29.91,318.051,16.116,99.661,-0.0047637
29.96,318.552,16.116,99.658,-0.0050862
30.01,319.052,16.115,99.656,-0.0050403
30.06,319.552,16.115,99.654,-0.0048562
30.11,320.052,16.115,99.651,-0.0047655
30.16,320.552,16.114,99.649,-0.0049936
30.21,321.052,16.114,99.646,-0.0049019
30.26,321.552,16.113,99.644,-0.0051320
30.31,322.052,16.113,99.642,-0.0049487
30.36,322.552,16.113,99.639,-0.0051302
30.41,323.052,16.112,99.636,-0.0055454
30.46,323.552,16.112,99.634,-0.0047144
30.51,324.053,16.111,99.631,-0.0050292
30.56,324.553,16.111,99.629,-0.0047101
30.61,325.053,16.111,99.626,-0.0044349
30.66,325.553,16.11,99.624,-0.0049387
30.71,326.053,16.11,99.621,-0.0053541
30.76,326.553,16.109,99.619,-0.0050338
30.81,327.053,16.109,99.616,-0.0049469
30.86,327.553,16.109,99.614,-0.0054487
30.91,328.053,16.108,99.611,-0.0052714
30.96,328.553,16.108,99.608,-0.0055026
31.01,329.053,16.107,99.606,-0.0055086
31.06,329.553,16.107,99.603,-0.0049927
31.11,330.054,16.106,99.601,-0.0051235
31.16,330.554,16.106,99.598,-0.0053065
31.21,331.054,16.106,99.595,-0.0050778
31.26,331.554,16.105,99.593,-0.0053162
31.31,332.054,16.105,99.59,-0.0050366
31.36,332.554,16.104,99.587,-0.0055302
31.41,333.054,16.104,99.585,-0.0053930
31.46,333.554,16.103,99.582,-0.0059045
31.51,334.054,16.103,99.579,-0.0053641
31.56,334.554,16.103,99.576,-0.0055015
31.61,335.054,16.102,99.574,-0.0057288
31.66,335.555,16.102,99.571,-0.0053162
31.71,336.055,16.101,99.568,-0.0051759
31.76,336.555,16.101,99.565,-0.0054009
31.81,337.055,16.1,99.563,-0.0056267
31.86,337.555,16.1,99.56,-0.0054447
31.91,338.055,16.099,99.557,-0.0057203
31.96,338.555,16.099,99.554,-0.0057203
32.01,339.055,16.098,99.551,-0.0055403
32.06,339.555,16.098,99.549,-0.0058150
32.11,340.055,16.098,99.546,-0.0056319
32.16,340.555,16.097,99.543,-0.0058181
32.21,341.056,16.097,99.54,-0.0057234
32.26,341.556,16.096,99.537,-0.0054516
32.31,342.056,16.096,99.534,-0.0055474
32.36,342.556,16.095,99.532,-0.0055464
32.41,343.056,16.095,99.529,-0.0056850
32.46,343.556,16.094,99.526,-0.0057287
32.51,344.056,16.094,99.523,-0.0060037
32.56,344.556,16.093,99.52,-0.0063244
32.61,345.056,16.093,99.517,-0.0057692
32.66,345.556,16.092,99.514,-0.0058544
32.71,346.056,16.092,99.511,-0.0071885
32.76,346.557,16.091,99.508,-0.0055861
32.81,347.057,16.091,99.505,-0.0057025
32.86,347.557,16.09,99.502,-0.0056995
32.91,348.057,16.09,99.499,-0.0063013
32.96,348.557,16.089,99.496,-0.0066213
33.01,349.057,16.089,99.493,-0.0061983
33.06,349.557,16.089,99.49,-0.0059415
33.11,350.057,16.088,99.487,-0.0064043
33.16,350.557,16.088,99.484,-0.0059535
33.21,351.057,16.087,99.48,-0.0063151
33.26,351.557,16.087,99.477,-0.0060069
33.31,352.058,16.086,99.474,-0.0064162
33.36,352.558,16.086,99.471,-0.0059066
33.41,353.058,16.085,99.468,-0.0063152
33.46,353.558,16.084,99.465,-0.0063985
33.51,354.058,16.084,99.462,-0.0063106
33.56,354.558,16.083,99.458,-0.0064044
33.61,355.058,16.083,99.455,-0.0062569
33.66,355.558,16.082,99.452,-0.0064935
33.71,356.058,16.082,99.449,-0.0058056
33.76,356.558,16.081,99.445,-0.0064243
33.81,357.058,16.081,99.442,-0.0062751
33.86,357.558,16.08,99.439,-0.0067308
33.91,358.059,16.08,99.435,-0.0065041
33.96,358.559,16.079,99.432,-0.0070093
34.01,359.059,16.079,99.429,-0.0071061
34.06,359.559,16.078,99.425,-0.0069177
34.11,360.059,16.078,99.422,-0.0068162
34.16,360.559,16.077,99.418,-0.0067703
34.21,361.059,16.076,99.415,-0.0070971
34.26,361.559,16.076,99.411,-0.0069635
34.31,362.059,16.075,99.408,-0.0070667
34.36,362.559,16.075,99.404,-0.0074312
34.41,363.059,16.074,99.401,-0.0070119
34.46,363.56,16.073,99.397,-0.0071138
34.51,364.06,16.073,99.393,-0.0074771
34.56,364.56,16.072,99.39,-0.0075744
34.61,365.06,16.072,99.386,-0.0074285
34.66,365.56,16.071,99.382,-0.0074838
34.71,366.06,16.07,99.378,-0.0077697
34.76,366.56,16.07,99.374,-0.0075329
34.81,367.06,16.069,99.371,-0.0077470
34.86,367.56,16.069,99.367,-0.0075633
34.91,368.06,16.068,99.363,-0.0080409
34.96,368.56,16.067,99.359,-0.0081502
35.01,369.061,16.067,99.355,-0.0082342
35.06,369.561,16.066,99.351,-0.0085780
35.11,370.061,16.065,99.347,-0.0082569
35.16,370.561,16.065,99.343,-0.0079642
35.21,371.061,16.064,99.339,-0.0080734
35.26,371.561,16.063,99.334,-0.0084832
35.31,372.061,16.063,99.33,-0.0085844
35.36,372.561,16.062,99.326,-0.0089074
35.41,373.061,16.061,99.321,-0.0089286
35.46,373.561,16.061,99.317,-0.0091865
35.51,374.061,16.06,99.313,-0.0089319
35.56,374.562,16.059,99.308,-0.0093663
35.61,375.062,16.058,99.303,-0.0090993
35.66,375.562,16.058,99.299,-0.0094002
35.71,376.062,16.057,99.294,-0.0094037
35.76,376.562,16.056,99.289,-0.0095784
35.81,377.062,16.055,99.284,-0.0094150
35.86,377.562,16.055,99.28,-0.0099781
35.91,378.062,16.054,99.275,-0.0100678
35.96,378.562,16.053,99.27,-0.0100766
36.01,379.062,16.052,99.264,-0.0102190
36.06,379.562,16.051,99.259,-0.0104338
36.11,380.063,16.05,99.254,-0.0106646
36.16,380.563,16.05,99.248,-0.0109629
36.21,381.063,16.049,99.243,-0.0110106
36.26,381.563,16.048,99.238,-0.0111333
36.31,382.063,16.047,99.232,-0.0111143
36.36,382.563,16.046,99.226,-0.0114884
36.41,383.063,16.045,99.221,-0.0113449
36.46,383.563,16.044,99.215,-0.0119615
36.51,384.063,16.043,99.209,-0.0118830
36.56,384.563,16.042,99.202,-0.0120487
36.61,385.063,16.041,99.196,-0.0130156
36.66,385.563,16.04,99.19,-0.0128663
36.71,386.064,16.039,99.184,-0.0131410
36.76,386.564,16.038,99.177,-0.0131989
36.81,387.064,16.037,99.17,-0.0133535
36.86,387.564,16.036,99.163,-0.0133242
36.91,388.064,16.035,99.157,-0.0139142
36.96,388.564,16.034,99.15,-0.0138636
37.01,389.064,16.032,99.142,-0.0145795
37.06,389.564,16.031,99.135,-0.0148246
37.11,390.064,16.03,99.128,-0.0144400
37.16,390.564,16.029,99.12,-0.0153014
37.21,391.064,16.028,99.112,-0.0151931
37.26,391.565,16.026,99.105,-0.0159506
37.31,392.065,16.025,99.097,-0.0162557
37.36,392.565,16.024,99.089,-0.0165569
37.41,393.065,16.022,99.08,-0.0169716
37.46,393.565,16.021,99.072,-0.0165354
37.51,394.065,16.02,99.063,-0.0171371
37.56,394.565,16.018,99.054,-0.0174355
37.61,395.065,16.017,99.045,-0.0180502
37.66,395.565,16.015,99.036,-0.0189492
37.71,396.065,16.014,99.027,-0.0190934
37.76,396.565,16.012,99.017,-0.0191392
37.81,397.066,16.011,99.008,-0.0194745
37.86,397.566,16.009,98.998,-0.0197273
37.91,398.066,16.007,98.988,-0.0202654
37.96,398.566,16.006,98.977,-0.0208180
38.01,399.066,16.004,98.967,-0.0207226
38.06,399.566,16.002,98.957,-0.0212338
38.11,400.066,16.001,98.946,-0.0213136
38.16,400.566,15.999,98.935,-0.0227730
38.21,401.066,15.997,98.924,-0.0233027
38.26,401.566,15.995,98.912,-0.0234862
38.31,402.066,15.993,98.9,-0.0238073
38.36,402.567,15.991,98.888,-0.0245970
38.41,403.067,15.989,98.876,-0.0250137
38.46,403.567,15.987,98.863,-0.0250779
38.51,404.067,15.985,98.85,-0.0261905
38.56,404.567,15.983,98.837,-0.0266631
38.61,405.067,15.981,98.823,-0.0277575
38.66,405.567,15.978,98.809,-0.0283010
38.71,406.067,15.976,98.795,-0.0290219
38.76,406.567,15.974,98.78,-0.0303794
38.81,407.067,15.971,98.765,-0.0306197
38.86,407.567,15.969,98.749,-0.0312729
38.91,408.068,15.966,98.734,-0.0317482
38.96,408.568,15.964,98.718,-0.0324752
39.01,409.068,15.961,98.701,-0.0332114
39.06,409.568,15.958,98.685,-0.0336380
39.11,410.068,15.956,98.668,-0.0341846
39.16,410.568,15.953,98.65,-0.0348709
39.21,411.068,15.95,98.632,-0.0359429
39.26,411.568,15.947,98.614,-0.0372711
39.31,412.068,15.944,98.595,-0.0379758
39.36,412.568,15.941,98.576,-0.0391897
39.41,413.068,15.938,98.556,-0.0401319
39.46,413.568,15.934,98.536,-0.0415828
39.51,414.069,15.931,98.515,-0.0424822
39.56,414.569,15.927,98.493,-0.0440476
39.61,415.069,15.924,98.471,-0.0451376
39.66,415.569,15.92,98.449,-0.0459380
39.71,416.069,15.916,98.425,-0.0473901
39.76,416.569,15.913,98.401,-0.0483812
39.81,417.069,15.908,98.377,-0.0500000
39.86,417.569,15.904,98.351,-0.0513686
39.91,418.069,15.9,98.325,-0.0537899
39.96,418.569,15.896,98.298,-0.0553121
40.01,419.069,15.891,98.27,-0.0571964
40.06,419.57,15.887,98.241,-0.0586996
40.11,420.07,15.882,98.211,-0.0611365
40.16,420.57,15.877,98.18,-0.0625916
40.21,421.07,15.872,98.148,-0.0643302
40.26,421.57,15.866,98.115,-0.0679570
40.31,422.07,15.86,98.077,-0.0717888
40.36,422.57,15.854,98.038,-0.0758735
40.41,423.07,15.847,97.997,-0.0833333
40.46,423.57,15.84,97.951,-0.0930595
40.51,424.07,15.832,97.904,-0.0977529
40.56,424.57,15.824,97.853,-0.1067260
40.61,425.071,15.816,97.802,-0.1098490
40.66,425.571,15.807,97.749,-0.1116150
40.71,426.071,15.798,97.693,-0.1169600
40.76,426.571,15.789,97.635,-0.1146060
40.81,427.071,15.779,97.574,-0.1269690
40.86,427.571,15.768,97.51,-0.1248860
40.91,428.071,15.758,97.444,-0.1282010
40.96,428.571,15.747,97.376,-0.1406790
41.01,429.071,15.735,97.304,-0.1435160
41.06,429.571,15.723,97.231,-0.1491240
41.11,430.071,15.711,97.156,-0.1591380
41.16,430.572,15.698,97.075,-0.1672610
41.21,431.072,15.684,96.99,-0.1751830
41.26,431.572,15.67,96.904,-0.1687730
41.31,432.072,15.657,96.819,-0.1693080
41.36,432.572,15.642,96.729,-0.1824180
41.41,433.072,15.627,96.636,-0.1863080
41.46,433.572,15.611,96.536,-0.2143840
41.51,434.072,15.594,96.43,-0.2219420
41.56,434.572,15.576,96.32,-0.2331860
41.61,435.072,15.557,96.205,-0.2448310
41.66,435.572,15.538,96.083,-0.2481250
41.71,436.073,15.518,95.961,-0.2512340
41.76,436.573,15.498,95.836,-0.2647100
41.81,437.073,15.477,95.705,-0.2696980
41.86,437.573,15.454,95.565,-0.2768320
41.91,438.073,15.431,95.421,-0.2814100
41.96,438.573,15.407,95.275,-0.2957670
42.01,439.073,15.382,95.121,-0.3053600
42.06,439.573,15.355,94.952,-0.3377860
42.11,440.073,15.328,94.786,-0.3326780
42.16,440.573,15.301,94.617,-0.3282050
42.21,441.073,15.274,94.454,-0.3297600
42.26,441.573,15.246,94.277,-0.3848620
42.31,442.074,15.215,94.086,-0.3797370
42.36,442.574,15.184,93.894,-0.4042820
42.41,443.074,15.15,93.687,-0.4154420
42.46,443.574,15.117,93.482,-0.4422320
42.51,444.074,15.082,93.264,-0.4433940
42.56,444.574,15.045,93.034,-0.4403740
42.61,445.074,15.005,92.792,-0.4808680
42.66,445.574,14.967,92.552,-0.4774400
42.71,446.074,14.925,92.293,-0.5436990
42.76,446.574,14.879,92.009,-0.5681780
42.81,447.074,14.831,91.713,-0.6173530
42.86,447.575,14.782,91.409,-0.5636090
42.91,448.075,14.731,91.097,-0.6329490
42.96,448.575,14.679,90.771,-0.6592240
43.01,449.075,14.624,90.434,-0.6992850
43.06,449.575,14.567,90.081,-0.6969960
43.11,450.075,14.503,89.684,-0.7866300
43.16,450.575,14.439,89.288,-0.7795590
43.21,451.075,14.37,88.861,-0.9147100
43.26,451.575,14.299,88.422,-0.8474280
43.31,452.075,14.229,87.99,-0.8908910
43.36,452.575,14.153,87.518,-0.9328420
43.41,453.076,14.074,87.035,-1.02747
43.46,453.576,13.989,86.507,-1.09744
43.51,454.076,13.901,85.961,-1.13466
43.56,454.576,13.809,85.394,-1.13854
43.61,455.076,13.713,84.8,-1.20365
43.66,455.576,13.616,84.199,-1.25206
43.71,456.076,13.51,83.546,-1.2489
43.76,456.576,13.404,82.891,-1.35983
43.81,457.076,13.291,82.192,-1.37855
43.86,457.576,13.173,81.458,-1.50389
43.91,458.076,13.049,80.695,-1.4967
43.96,458.577,12.925,79.924,-1.62974
44.01,459.077,12.795,79.124,-1.61803
44.06,459.577,12.653,78.245,-1.82768
44.11,460.077,12.509,77.356,-1.64931
44.16,460.577,12.361,76.441,-1.94266
44.21,461.077,12.213,75.524,-1.96821
44.26,461.577,12.051,74.521,-2.08836
44.31,462.077,11.881,73.471,-2.17532
44.36,462.577,11.711,72.419,-2.05856
44.41,463.077,11.534,71.322,-2.25495
44.46,463.577,11.351,70.196,-2.3124
44.51,464.078,11.161,69.018,-2.42266
44.56,464.578,10.961,67.781,-2.42974
44.61,465.078,10.758,66.527,-2.47073
44.66,465.578,10.546,65.217,-2.65807
44.71,466.078,10.333,63.898,-2.64371
44.76,466.578,10.11,62.517,-2.71956
44.81,467.078,9.879,61.093,-2.82039
44.86,467.578,9.641,59.621,-2.91138
44.91,468.078,9.4,58.128,-3.05216
44.96,468.578,9.146,56.559,-2.99869
45.01,469.078,8.891,54.981,-3.29485
45.06,469.578,8.629,53.36,-3.36994
45.11,470.079,8.358,51.688,-3.30835
45.16,470.579,8.083,49.987,-3.49284
45.21,471.079,7.804,48.262,-3.51041
45.26,471.579,7.521,46.51,-3.60027
45.31,472.079,7.231,44.714,-3.69
45.36,472.579,6.935,42.882,-3.56605
45.41,473.079,6.638,41.049,-3.71835
45.46,473.579,6.335,39.175,-3.63167
45.51,474.079,6.036,37.327,-3.80265
45.56,474.579,5.727,35.416,-3.82597
45.61,475.079,5.421,33.525,-3.77534
45.66,475.58,5.114,31.624,-3.91097
45.71,476.08,4.802,29.697,-3.79372
45.76,476.58,4.493,27.784,-3.74223
45.81,477.08,4.188,25.897,-3.76978
45.86,477.58,3.88,23.991,-3.8185
45.91,478.08,3.582,22.151,-3.65754
45.96,478.58,3.284,20.307,-3.62634
46.01,479.08,2.995,18.521,-3.56454
46.06,479.58,2.71,16.757,-3.43829
46.11,480.08,2.44,15.087,-3.35344
46.16,480.58,2.175,13.451,-3.17635
46.21,481.081,1.929,11.931,-3.07545
46.26,481.581,1.688,10.44,-2.85143
46.31,482.081,1.461,9.032,-2.69689
46.36,482.581,1.248,7.72,-2.52576
46.41,483.081,1.052,6.504,-2.34221
46.46,483.581,0.8730000,5.397,-2.10261
46.51,484.081,0.7170000,4.434,-1.84077
46.56,484.581,0.5750000,3.558,-1.59718
46.61,485.081,0.4540000,2.809,-1.34808
46.66,485.581,0.3560000,2.2,-1.13957
46.71,486.081,0.2730000,1.687,-0.9057060
46.76,486.582,0.2100000,1.299,-0.7065410
46.81,487.082,0.1620000,1,-0.5195820
46.86,487.582,0.1270000,0.7850000,-0.3520370
46.91,488.082,0.1040000,0.6410000,-0.2466270
46.96,488.582,0.0880000,0.5430000,-0.1520230
47.01,489.082,0.0780000,0.4840000,-0.0883926
47.06,489.582,0.0730000,0.4510000,-0.0490417
47.11,490.082,0.0700000,0.4340000,-0.0311584
47.16,490.582,0.0680000,0.4180000,-0.0315210
47.21,491.082,0.0650000,0.4030000,-0.0287858
47.26,491.582,0.0630000,0.3890000,-0.0245552
47.31,492.083,0.0610000,0.3780000,-0.0203131
47.36,492.583,0.0600000,0.3690000,-0.0165079
47.41,493.083,0.0580000,0.3610000,-0.0129725
47.46,493.583,0.0570000,0.3560000,-0.0100521
47.51,494.083,0.0570000,0.3510000,-0.0080293
47.56,494.583,0.0560000,0.3480000,-0.0061213
47.61,495.083,0.0560000,0.3450000,-0.0050022
47.66,495.583,0.0550000,0.3430000,-0.0039111
47.71,496.083,0.0550000,0.3410000,-0.0029268
47.76,496.583,0.0550000,0.3400000,-0.0023712
47.81,497.083,0.0550000,0.3390000,-0.0020011
47.86,497.583,0.0550000,0.3380000,-0.0012509
47.91,498.084,0.0550000,0.3370000,-0.0009624
47.96,498.584,0.0540000,0.3370000,-0.0005140
48.01,499.084,0.0540000,0.3370000,-0.0004782
48.06,499.584,0.0540000,0.3360000,-0.0003510
48.11,500.084,0.0540000,0.3360000,-0.0005774
48.16,500.584,0.0540000,0.3360000,-0.0003567
48.21,501.084,0.0540000,0.3360000,-0.0005395
48.26,501.584,0.0540000,0.3350000,-0.0002609
48.31,502.084,0.0540000,0.3360000,0.0001376
48.36,502.584,0.0540000,0.3350000,-0.0001253
48.41,503.084,0.0540000,0.3350000,-0.0000172
48.46,503.585,0.0540000,0.3350000,0.0004453
48.51,504.085,0.0540000,0.3350000,0.0001146
48.56,504.585,0.0540000,0.3350000,-0.0001696
48.61,505.085,0.0540000,0.3350000,-0.0002062
48.66,505.585,0.0540000,0.3350000,-0.0000853
48.71,506.085,0.0540000,0.3350000,-0.0000948
48.76,506.585,0.0540000,0.3350000,-0.0005273
48.81,507.085,0.0540000,0.3350000,0.0004084
48.86,507.585,0.0540000,0.3350000,-0.0000027
48.91,508.085,0.0540000,0.3350000,-0.0001015
48.96,508.585,0.0540000,0.3350000,-0.0000439
49.01,509.086,0.0540000,0.3350000,-0.0003956
49.06,509.586,0.0540000,0.3350000,-0.0003577
49.11,510.086,0.0540000,0.3350000,0.0001281
49.16,510.586,0.0540000,0.3350000,-0.0000089
49.21,511.086,0.0540000,0.3350000,-0.0000116
49.26,511.586,0.0540000,0.3350000,0.0002438
49.31,512.086,0.0540000,0.3350000,0.0000702
49.36,512.586,0.0540000,0.3350000,0.0001757
49.41,513.086,0.0540000,0.3350000,-0.0000291
49.46,513.586,0.0540000,0.3350000,0.0000270
49.51,514.086,0.0540000,0.3360000,-0.0000823
49.56,514.587,0.0540000,0.3360000,-0.0001964
49.61,515.087,0.0540000,0.3350000,0.0000581
49.66,515.587,0.0540000,0.3350000,0.0001318
49.71,516.087,0.0540000,0.3360000,0.0000837
49.76,516.587,0.0540000,0.3360000,0.0003421
49.81,517.087,0.0540000,0.3360000,-0.0000355
49.86,517.587,0.0540000,0.3360000,0.0001811
49.91,518.087,0.0540000,0.3360000,-0.0000524
49.96,518.587,0.0540000,0.3360000,0.0000997
50.01,519.087,0.0540000,0.3360000,-0.0000410
50.06,519.587,0.0540000,0.3360000,-0.0001993
50.11,520.088,0.0540000,0.3360000,-0.0000493
50.16,520.588,0.0540000,0.3360000,-0.0001418
50.21,521.088,0.0540000,0.3360000,0.0000715
50.26,521.588,0.0540000,0.3360000,0.0001362
50.31,522.088,0.0540000,0.3360000,0.0000415
50.36,522.588,0.0540000,0.3360000,-0.0000213
50.41,523.088,0.0540000,0.3350000,-0.0000127
50.46,523.588,0.0540000,0.3350000,-0.0002633
50.51,524.088,0.0540000,0.3350000,-0.0001312
50.56,524.588,0.0540000,0.3350000,-0.0002246
50.61,525.088,0.0540000,0.3350000,-0.0002533
50.66,525.588,0.0540000,0.3350000,-0.0000475
50.71,526.089,0.0540000,0.3350000,0.0002378
50.76,526.589,0.0540000,0.3350000,-0.0000169
50.81,527.089,0.0540000,0.3350000,0.0001891
50.86,527.589,0.0540000,0.3350000,0.0002340
50.91,528.089,0.0540000,0.3350000,0.0003408
50.96,528.589,0.0540000,0.3350000,-0.0002370
51.01,529.089,0.0540000,0.3350000,-0.0004524
51.06,529.589,0.0540000,0.3350000,-0.0003825
51.11,530.089,0.0540000,0.3350000,-0.0003740
51.16,530.589,0.0540000,0.3350000,-0.0000676
51.21,531.089,0.0540000,0.3350000,0.0000871
51.26,531.59,0.0540000,0.3340000,-0.0001796
51.31,532.09,0.0540000,0.3340000,-0.0004327
51.36,532.59,0.0540000,0.3340000,0.0001757
51.41,533.09,0.0540000,0.3340000,-0.0003997
51.46,533.59,0.0540000,0.3340000,-0.0003987
51.51,534.09,0.0540000,0.3340000,-0.0002916
51.56,534.59,0.0540000,0.3340000,-0.0002209
51.61,535.09,0.0540000,0.3340000,-0.0001829
51.66,535.59,0.0540000,0.3340000,0.0001998
51.71,536.09,0.0540000,0.3340000,-0.0001273
51.76,536.59,0.0540000,0.3340000,-0.0000325
51.81,537.091,0.0540000,0.3340000,-0.0000386
51.86,537.591,0.0540000,0.3340000,-0.0003292
51.91,538.091,0.0540000,0.3340000,-0.0002681
51.96,538.591,0.0540000,0.3330000,-0.0001109
52.01,539.091,0.0540000,0.3330000,-0.0001024
52.06,539.591,0.0540000,0.3330000,-0.0000300
52.11,540.091,0.0540000,0.3330000,0.0000529
52.16,540.591,0.0540000,0.3330000,-0.0000141
52.21,541.091,0.0540000,0.3330000,0.0000662
52.26,541.591,0.0540000,0.3330000,-0.0001759
52.31,542.091,0.0540000,0.3330000,-0.0001967
52.36,542.592,0.0540000,0.3330000,0.0000520
52.41,543.092,0.0540000,0.3330000,-0.0003207
52.46,543.592,0.0540000,0.3330000,-0.0002188
52.51,544.092,0.0540000,0.3330000,-0.0000745
52.56,544.592,0.0540000,0.3330000,0.0000921
52.61,545.092,0.0540000,0.3330000,0.0000908
52.66,545.592,0.0540000,0.3330000,-0.0000533
52.71,546.092,0.0540000,0.3330000,-0.0002790
52.76,546.592,0.0540000,0.3330000,-0.0005209
52.81,547.092,0.0540000,0.3330000,-0.0001551
52.86,547.592,0.0540000,0.3330000,-0.0001556
52.91,548.093,0.0540000,0.3330000,0.0000642
52.96,548.593,0.0540000,0.3330000,0.0000992
53.01,549.093,0.0540000,0.3330000,0.0002449
53.06,549.593,0.0540000,0.3330000,0.0000955
53.11,550.093,0.0540000,0.3330000,0.0000256
53.16,550.593,0.0540000,0.3330000,0.0001949
53.21,551.093,0.0540000,0.3330000,-0.0002414
53.26,551.593,0.0540000,0.3330000,-0.0001895
53.31,552.093,0.0540000,0.3330000,-0.0000266
53.36,552.593,0.0540000,0.3330000,0.0002008
53.41,553.093,0.0540000,0.3330000,-0.0000602
53.46,553.593,0.0540000,0.3330000,-0.0001713
53.51,554.094,0.0540000,0.3330000,0.0002050
53.56,554.594,0.0540000,0.3320000,0.0000073
53.61,555.094,0.0540000,0.3320000,0.0001065
53.66,555.594,0.0540000,0.3320000,-0.0000182
53.71,556.094,0.0540000,0.3320000,-0.0001212
53.76,556.594,0.0540000,0.3320000,0.0003611
53.81,557.094,0.0540000,0.3320000,-0.0004300
53.86,557.594,0.0540000,0.3320000,-0.0000957
53.91,558.094,0.0540000,0.3320000,-0.0001753
53.96,558.594,0.0540000,0.3320000,-0.0000759
54.01,559.094,0.0540000,0.3320000,0.0001637
54.06,559.595,0.0540000,0.3320000,0.0000870
54.11,560.095,0.0540000,0.3320000,0.0003062
54.16,560.595,0.0540000,0.3320000,-0.0001911
54.21,561.095,0.0540000,0.3320000,-0.0000883
54.26,561.595,0.0540000,0.3320000,-0.0004836
54.31,562.095,0.0540000,0.3320000,-0.0004753
54.36,562.595,0.0540000,0.3320000,-0.0002937
54.41,563.095,0.0540000,0.3320000,0.0001214
54.46,563.595,0.0540000,0.3310000,0.0000668
54.51,564.095,0.0540000,0.3310000,-0.0002120
54.56,564.595,0.0540000,0.3310000,-0.0002535
54.61,565.096,0.0540000,0.3310000,-0.0000332
54.66,565.596,0.0540000,0.3310000,-0.0003309
54.71,566.096,0.0540000,0.3310000,-0.0001973
54.76,566.596,0.0540000,0.3310000,-0.0001741
54.81,567.096,0.0540000,0.3310000,-0.0001645
54.86,567.596,0.0530000,0.3310000,-0.0000576
54.91,568.096,0.0530000,0.3310000,-0.0001128
54.96,568.596,0.0530000,0.3310000,-0.0000589
55.01,569.096,0.0530000,0.3310000,-0.0001966
55.06,569.596,0.0530000,0.3300000,-0.0002820
55.11,570.096,0.0530000,0.3300000,-0.0003427
55.16,570.597,0.0530000,0.3300000,-0.0002168
55.21,571.097,0.0530000,0.3300000,-0.0003246
55.26,571.597,0.0530000,0.3300000,-0.0001658
55.31,572.097,0.0530000,0.3300000,-0.0002588
55.36,572.597,0.0530000,0.3300000,0.0002169
55.41,573.097,0.0530000,0.3300000,0.0001048
55.46,573.597,0.0530000,0.3300000,-0.0000953
55.51,574.097,0.0530000,0.3300000,-0.0002001
55.56,574.597,0.0530000,0.3300000,-0.0002520
55.61,575.097,0.0530000,0.3300000,-0.0002242
55.66,575.597,0.0530000,0.3300000,-0.0001841
55.71,576.098,0.0530000,0.3300000,-0.0001825
55.76,576.598,0.0530000,0.3290000,-0.0001447
55.81,577.098,0.0530000,0.3290000,-0.0001516
55.86,577.598,0.0530000,0.3290000,0.0001436
55.91,578.098,0.0530000,0.3290000,-0.0003361
55.96,578.598,0.0530000,0.3290000,-0.0003862
56.01,579.098,0.0530000,0.3290000,-0.0001254
56.06,579.598,0.0530000,0.3290000,-0.0004797
56.11,580.098,0.0530000,0.3290000,0.0005710
56.16,580.598,0.0530000,0.3290000,0.0000444
56.21,581.098,0.0530000,0.3290000,0.0001177
56.26,581.598,0.0530000,0.3290000,-0.0003906
56.31,582.099,0.0530000,0.3280000,-0.0003259
56.36,582.599,0.0530000,0.3280000,-0.0002277
56.41,583.099,0.0530000,0.3280000,0.0001136
56.46,583.599,0.0530000,0.3280000,-0.0002039
56.51,584.099,0.0530000,0.3280000,-0.0002353
56.56,584.599,0.0530000,0.3280000,-0.0000699
56.61,585.099,0.0530000,0.3280000,0.0000563
56.66,585.599,0.0530000,0.3280000,-0.0001301
56.71,586.099,0.0530000,0.3280000,-0.0000369
56.76,586.599,0.0530000,0.3280000,0.0000063
56.81,587.099,0.0530000,0.3280000,0.0002069
56.86,587.6,0.0530000,0.3280000,-0.0002123
56.91,588.1,0.0530000,0.3280000,-0.0000538
56.96,588.6,0.0530000,0.3280000,-0.0004096
57.01,589.1,0.0530000,0.3280000,-0.0000797
57.06,589.6,0.0530000,0.3280000,0.0001129
57.1,590,0.0530000,0.3280000,0.0005583