File: R/rHDPE_App/app/www/Output/TGA/Condensed_Data/Resin1_0__1.csv
1.05,30,13.624,100.031,0.0046329
1.11,30.5001,13.624,100.032,0.0038747
1.17,31.0002,13.624,100.033,-0.0009445
1.23,31.5003,13.624,100.034,0.0014023
1.28,32.0004,13.624,100.034,0.0036583
1.34,32.5004,13.624,100.035,-0.0000512
1.4,33.0005,13.624,100.036,0.0033012
1.45,33.5006,13.625,100.036,-0.0009592
1.51,34.0007,13.625,100.037,0.0034149
1.56,34.5008,13.625,100.038,-0.0001499
1.62,35.0009,13.625,100.038,0.0021889
1.67,35.501,13.625,100.039,-0.0003962
1.72,36.0011,13.625,100.04,0.0017754
1.78,36.5012,13.625,100.04,0.0014255
1.83,37.0013,13.625,100.041,0.0004411
1.88,37.5013,13.625,100.042,0.0023469
1.94,38.0014,13.625,100.042,0.0003900
1.99,38.5015,13.625,100.043,0.0008759
2.04,39.0016,13.625,100.044,0.0021369
2.1,39.5017,13.626,100.044,0.0007273
2.15,40.0018,13.626,100.045,0.0007259
2.2,40.5019,13.626,100.045,0.0019828
2.26,41.002,13.626,100.046,0.0012558
2.31,41.5021,13.626,100.046,0.0009173
2.36,42.0021,13.626,100.047,0.0021207
2.41,42.5022,13.626,100.048,0.0016839
2.47,43.0023,13.626,100.048,0.0008643
2.52,43.5024,13.626,100.049,0.0016784
2.57,44.0025,13.626,100.05,0.0020113
2.62,44.5026,13.626,100.05,0.0014332
2.68,45.0027,13.626,100.051,0.0009545
2.73,45.5028,13.627,100.052,0.0020021
2.78,46.0029,13.627,100.052,0.0012840
2.83,46.5029,13.627,100.053,0.0010914
2.88,47.003,13.627,100.053,0.0008054
2.94,47.5031,13.627,100.054,0.0014193
2.99,48.0032,13.627,100.055,0.0013706
3.04,48.5033,13.627,100.055,0.0010853
3.09,49.0034,13.627,100.056,0.0002829
3.14,49.5035,13.627,100.056,0.0010843
3.19,50.0036,13.627,100.057,0.0012706
3.24,50.5037,13.627,100.057,0.0011749
3.29,51.0038,13.627,100.058,0.0011266
3.35,51.5038,13.628,100.059,0.0012188
3.4,52.0039,13.628,100.059,0.0007969
3.45,52.504,13.628,100.06,0.0013576
3.5,53.0041,13.628,100.06,0.0015443
3.55,53.5042,13.628,100.061,0.0015901
3.6,54.0043,13.628,100.062,0.0012146
3.65,54.5044,13.628,100.062,0.0011194
3.7,55.0045,13.628,100.063,0.0008848
3.76,55.5046,13.628,100.063,0.0013036
3.81,56.0046,13.628,100.064,0.0007911
3.86,56.5047,13.628,100.064,0.0010701
3.91,57.0048,13.628,100.065,0.0013927
3.96,57.5049,13.628,100.065,0.0007423
4.01,58.005,13.629,100.066,0.0007876
4.06,58.5051,13.629,100.066,0.0010197
4.11,59.0052,13.629,100.067,0.0006020
4.16,59.5053,13.629,100.067,0.0007413
4.21,60.0054,13.629,100.068,0.0010646
4.26,60.5054,13.629,100.068,0.0009707
4.31,61.0055,13.629,100.069,0.0007386
4.36,61.5056,13.629,100.069,0.0009223
4.41,62.0057,13.629,100.07,0.0013363
4.46,62.5058,13.629,100.071,0.0007838
4.51,63.0059,13.629,100.071,0.0012905
4.56,63.506,13.629,100.072,0.0010143
4.61,64.0061,13.629,100.072,0.0006918
4.66,64.5062,13.629,100.072,0.0011993
4.71,65.0063,13.63,100.073,0.0012431
4.76,65.5063,13.63,100.074,0.0010581
4.81,66.0064,13.63,100.074,0.0005515
4.86,66.5065,13.63,100.074,0.0005053
4.92,67.0066,13.63,100.075,0.0001838
4.97,67.5067,13.63,100.075,0.0006441
5.02,68.0068,13.63,100.076,0.0011031
5.07,68.5069,13.63,100.076,0.0008726
5.12,69.007,13.63,100.076,0.0007814
5.17,69.5071,13.63,100.077,0.0009645
5.22,70.0071,13.63,100.077,0.0012397
5.27,70.5072,13.63,100.078,0.0008725
5.32,71.0073,13.63,100.078,0.0007347
5.37,71.5074,13.63,100.078,0.0006427
5.42,72.0075,13.63,100.079,0.0011016
5.47,72.5076,13.63,100.079,0.0007801
5.52,73.0077,13.63,100.079,0.0007341
5.57,73.5078,13.63,100.08,0.0004580
5.62,74.0079,13.63,100.08,0.0008247
5.67,74.5079,13.631,100.08,0.0009158
5.72,75.008,13.631,100.081,0.0006413
5.77,75.5081,13.631,100.081,0.0009617
5.82,76.0082,13.631,100.082,0.0009598
5.87,76.5083,13.631,100.082,0.0003654
5.92,77.0084,13.631,100.082,0.0009147
5.97,77.5085,13.631,100.083,0.0008240
6.02,78.0086,13.631,100.083,0.0007778
6.07,78.5087,13.631,100.083,0.0003664
6.12,79.0088,13.631,100.084,0.0005489
6.17,79.5088,13.631,100.084,0.0004577
6.22,80.0089,13.631,100.084,0.0006858
6.27,80.509,13.631,100.084,0.0006414
6.32,81.0091,13.631,100.085,0.0006869
6.37,81.5092,13.631,100.085,0.0002290
6.42,82.0093,13.631,100.085,0.0012364
6.47,82.5094,13.631,100.086,0.0004574
6.52,83.0095,13.631,100.086,0.0008233
6.57,83.5096,13.631,100.086,0.0001832
6.62,84.0096,13.631,100.087,0.0005493
6.67,84.5097,13.631,100.087,0.0005948
6.72,85.0098,13.631,100.087,0.0004114
6.77,85.5099,13.631,100.087,0.0002288
6.82,86.01,13.631,100.088,0.0005957
6.87,86.5101,13.632,100.088,0.0009160
6.92,87.0102,13.632,100.088,0.0008247
6.97,87.5103,13.632,100.088,0.0005937
7.02,88.0104,13.632,100.089,0.0002737
7.07,88.5104,13.632,100.089,0.0004565
7.12,89.0105,13.632,100.089,0.0002281
7.17,89.5106,13.632,100.089,0.0002736
7.22,90.0107,13.632,100.089,0.0006399
7.27,90.5108,13.632,100.09,0.0003204
7.32,91.0109,13.632,100.09,0.0004577
7.37,91.511,13.632,100.09,0.0004578
7.42,92.0111,13.632,100.09,0.0003206
7.47,92.5112,13.632,100.09,0.0005036
7.52,93.0113,13.632,100.09,0.0003204
7.57,93.5113,13.632,100.091,0.0001830
7.62,94.0114,13.632,100.091,0.0001831
7.67,94.5115,13.632,100.091,-0.0000458
7.72,95.0116,13.632,100.091,0.0005036
7.77,95.5117,13.632,100.091,0.0005032
7.82,96.0118,13.632,100.092,0.0001827
7.87,96.5119,13.632,100.092,0.0001370
7.92,97.012,13.632,100.092,0.0003660
7.97,97.5121,13.632,100.092,0.0005493
8.02,98.0121,13.632,100.092,-0.0000458
8.07,98.5122,13.632,100.092,-0.0000458
8.12,99.0123,13.632,100.092,0.0004577
8.17,99.5124,13.632,100.092,0.0000915
8.22,100.013,13.632,100.092,0.0001373
8.27,100.513,13.632,100.093,-0.0002290
8.32,101.013,13.632,100.093,0.0000000
8.37,101.513,13.632,100.093,0.0001829
8.42,102.013,13.632,100.093,0.0002748
8.47,102.513,13.632,100.093,0.0003663
8.52,103.013,13.632,100.093,-0.0000457
8.57,103.513,13.632,100.093,0.0004582
8.62,104.013,13.632,100.093,0.0001832
8.67,104.513,13.632,100.093,0.0003658
8.72,105.013,13.632,100.093,-0.0001371
8.77,105.513,13.632,100.093,0.0000916
8.82,106.014,13.632,100.093,0.0004119
8.87,106.514,13.632,100.093,0.0001372
8.92,107.014,13.632,100.093,-0.0001372
8.97,107.514,13.632,100.093,0.0002288
9.02,108.014,13.632,100.094,0.0005489
9.07,108.514,13.632,100.094,-0.0001370
9.12,109.014,13.632,100.094,0.0003198
9.17,109.514,13.632,100.094,0.0001371
9.22,110.014,13.632,100.094,0.0001829
9.27,110.514,13.632,100.094,-0.0000458
9.32,111.014,13.632,100.094,-0.0000916
9.37,111.515,13.632,100.094,0.0004128
9.42,112.015,13.632,100.094,0.0000459
9.47,112.515,13.632,100.094,0.0002293
9.52,113.015,13.632,100.094,0.0002289
9.57,113.515,13.632,100.094,0.0002294
9.62,114.015,13.632,100.094,0.0000458
9.67,114.515,13.632,100.094,0.0000458
9.72,115.015,13.632,100.094,-0.0001373
9.77,115.515,13.632,100.094,0.0001372
9.82,116.015,13.632,100.094,0.0000915
9.87,116.515,13.632,100.094,-0.0001831
9.92,117.016,13.632,100.094,0.0002287
9.97,117.516,13.632,100.094,-0.0001830
10.02,118.016,13.632,100.094,-0.0002287
10.07,118.516,13.632,100.094,0.0000000
10.12,119.016,13.632,100.094,0.0002747
10.17,119.516,13.632,100.094,-0.0000916
10.22,120.016,13.632,100.094,0.0000918
10.27,120.516,13.632,100.094,0.0001835
10.32,121.016,13.632,100.094,0.0001834
10.37,121.516,13.632,100.094,-0.0002749
10.42,122.016,13.632,100.094,0.0000000
10.47,122.517,13.632,100.094,0.0000916
10.52,123.017,13.632,100.094,-0.0000457
10.57,123.517,13.632,100.094,0.0000915
10.62,124.017,13.632,100.094,0.0002290
10.67,124.517,13.632,100.095,-0.0000458
10.72,125.017,13.632,100.095,0.0005041
10.77,125.517,13.632,100.095,0.0001375
10.82,126.017,13.632,100.095,-0.0000458
10.87,126.517,13.632,100.095,0.0002753
10.92,127.017,13.632,100.095,0.0004595
10.97,127.517,13.632,100.095,0.0001835
11.02,128.018,13.632,100.095,0.0002290
11.07,128.518,13.632,100.095,0.0001832
11.12,129.018,13.633,100.095,0.0000916
11.17,129.518,13.633,100.095,0.0000000
11.22,130.018,13.633,100.095,-0.0000918
11.27,130.518,13.633,100.095,0.0002295
11.32,131.018,13.633,100.095,0.0002753
11.37,131.518,13.633,100.095,0.0000459
11.42,132.018,13.633,100.095,0.0006444
11.47,132.518,13.633,100.095,0.0005050
11.52,133.018,13.633,100.095,-0.0001373
11.57,133.518,13.633,100.095,-0.0000913
11.62,134.019,13.633,100.095,-0.0000457
11.67,134.519,13.633,100.095,0.0004109
11.72,135.019,13.633,100.095,-0.0004110
11.77,135.519,13.633,100.095,-0.0000457
11.82,136.019,13.633,100.095,-0.0004119
11.87,136.519,13.633,100.095,0.0000457
11.92,137.019,13.633,100.095,-0.0000915
11.97,137.519,13.632,100.095,-0.0001370
12.02,138.019,13.632,100.095,-0.0002743
12.07,138.519,13.632,100.095,-0.0002286
12.12,139.019,13.632,100.094,-0.0005031
12.17,139.52,13.632,100.094,-0.0010064
12.22,140.02,13.632,100.093,-0.0012346
12.27,140.52,13.632,100.093,-0.0014161
12.32,141.02,13.632,100.092,-0.0016441
12.37,141.52,13.632,100.091,-0.0014144
12.42,142.02,13.632,100.09,-0.0021408
12.47,142.52,13.632,100.089,-0.0021838
12.52,143.02,13.632,100.088,-0.0021369
12.57,143.52,13.631,100.087,-0.0019546
12.62,144.02,13.631,100.086,-0.0021360
12.67,144.52,13.631,100.085,-0.0020492
12.72,145.021,13.631,100.084,-0.0020477
12.77,145.521,13.631,100.083,-0.0020548
12.82,146.021,13.631,100.082,-0.0016411
12.87,146.521,13.631,100.081,-0.0022385
12.92,147.021,13.63,100.08,-0.0018332
12.97,147.521,13.63,100.079,-0.0010098
13.02,148.021,13.63,100.079,-0.0014224
13.07,148.521,13.63,100.078,-0.0013779
13.12,149.021,13.63,100.077,-0.0012379
13.17,149.521,13.63,100.077,-0.0011912
13.22,150.021,13.63,100.076,-0.0011952
13.27,150.522,13.63,100.075,-0.0013306
13.32,151.022,13.63,100.075,-0.0008245
13.37,151.522,13.63,100.074,-0.0018806
13.42,152.022,13.63,100.074,-0.0011042
13.47,152.522,13.63,100.073,-0.0009626
13.52,153.022,13.629,100.073,-0.0011487
13.57,153.522,13.629,100.072,-0.0008710
13.62,154.022,13.629,100.072,-0.0015119
13.67,154.522,13.629,100.071,-0.0010114
13.72,155.022,13.629,100.07,-0.0014710
13.77,155.522,13.629,100.07,-0.0012385
13.82,156.023,13.629,100.069,-0.0010559
13.87,156.523,13.629,100.069,-0.0011499
13.92,157.023,13.629,100.068,-0.0011017
13.97,157.523,13.629,100.067,-0.0014683
14.02,158.023,13.629,100.067,-0.0008278
14.07,158.523,13.629,100.066,-0.0010582
14.12,159.023,13.628,100.066,-0.0011478
14.17,159.523,13.628,100.065,-0.0018808
14.22,160.023,13.628,100.064,-0.0015154
14.27,160.523,13.628,100.064,-0.0012882
14.32,161.023,13.628,100.063,-0.0011911
14.37,161.523,13.628,100.063,-0.0012815
14.42,162.024,13.628,100.062,-0.0010505
14.47,162.524,13.628,100.061,-0.0012349
14.52,163.024,13.628,100.061,-0.0011451
14.57,163.524,13.628,100.06,-0.0010996
14.62,164.024,13.628,100.06,-0.0011439
14.67,164.524,13.628,100.059,-0.0010103
14.72,165.024,13.627,100.058,-0.0012408
14.77,165.524,13.627,100.058,-0.0013315
14.82,166.024,13.627,100.057,-0.0012370
14.87,166.524,13.627,100.056,-0.0009600
14.92,167.024,13.627,100.056,-0.0013266
14.97,167.525,13.627,100.055,-0.0015111
15.02,168.025,13.627,100.054,-0.0016019
15.07,168.525,13.627,100.054,-0.0014648
15.12,169.025,13.627,100.053,-0.0017453
15.17,169.525,13.627,100.052,-0.0013301
15.22,170.025,13.627,100.052,-0.0013339
15.27,170.525,13.626,100.051,-0.0012842
15.32,171.025,13.626,100.05,-0.0013736
15.37,171.525,13.626,100.05,-0.0011471
15.42,172.025,13.626,100.049,-0.0015168
15.47,172.525,13.626,100.048,-0.0017450
15.52,173.026,13.626,100.047,-0.0011463
15.57,173.526,13.626,100.047,-0.0016443
15.62,174.026,13.626,100.046,-0.0015964
15.67,174.526,13.626,100.045,-0.0014188
15.72,175.026,13.626,100.044,-0.0013276
15.77,175.526,13.626,100.044,-0.0017371
15.82,176.026,13.625,100.043,-0.0016964
15.87,176.526,13.625,100.042,-0.0014166
15.92,177.026,13.625,100.041,-0.0013758
15.97,177.526,13.625,100.041,-0.0018794
16.02,178.026,13.625,100.04,-0.0014220
16.07,178.527,13.625,100.039,-0.0015100
16.12,179.027,13.625,100.039,-0.0012349
16.17,179.527,13.625,100.038,-0.0016014
16.22,180.027,13.625,100.037,-0.0013276
16.27,180.527,13.624,100.036,-0.0014171
16.32,181.027,13.624,100.035,-0.0016946
16.37,181.527,13.624,100.035,-0.0016085
16.42,182.027,13.624,100.034,-0.0015134
16.47,182.527,13.624,100.033,-0.0016074
16.52,183.027,13.624,100.032,-0.0013778
16.57,183.527,13.624,100.032,-0.0016015
16.62,184.028,13.624,100.031,-0.0016479
16.67,184.528,13.624,100.03,-0.0016068
16.72,185.028,13.623,100.029,-0.0016976
16.77,185.528,13.623,100.028,-0.0015554
16.82,186.028,13.623,100.027,-0.0017378
16.87,186.528,13.623,100.026,-0.0017392
16.92,187.028,13.623,100.026,-0.0015999
16.97,187.528,13.623,100.025,-0.0022448
17.02,188.028,13.623,100.024,-0.0016456
17.07,188.528,13.623,100.023,-0.0018273
17.12,189.028,13.623,100.022,-0.0020176
17.17,189.528,13.622,100.021,-0.0020165
17.22,190.029,13.622,100.02,-0.0016037
17.27,190.529,13.622,100.02,-0.0017418
17.32,191.029,13.622,100.019,-0.0018369
17.37,191.529,13.622,100.018,-0.0015586
17.42,192.029,13.622,100.017,-0.0015549
17.47,192.529,13.622,100.016,-0.0017890
17.52,193.029,13.622,100.015,-0.0021495
17.57,193.529,13.622,100.014,-0.0018256
17.62,194.029,13.621,100.013,-0.0018327
17.67,194.529,13.621,100.013,-0.0019319
17.72,195.029,13.621,100.012,-0.0021173
17.77,195.53,13.621,100.011,-0.0021599
17.82,196.03,13.621,100.01,-0.0020639
17.87,196.53,13.621,100.009,-0.0015532
17.92,197.03,13.621,100.008,-0.0019205
17.97,197.53,13.621,100.007,-0.0016499
18.03,198.03,13.62,100.006,-0.0020183
18.08,198.53,13.62,100.005,-0.0019196
18.13,199.03,13.62,100.004,-0.0021103
18.18,199.53,13.62,100.003,-0.0014660
18.23,200.03,13.62,100.002,-0.0016435
18.28,200.53,13.62,100.001,-0.0015089
18.33,201.031,13.62,100,-0.0017879
18.38,201.531,13.619,99.999,-0.0020077
18.43,202.031,13.619,99.998,-0.0018733
18.48,202.531,13.619,99.997,-0.0018829
18.53,203.031,13.619,99.996,-0.0020159
18.58,203.531,13.619,99.996,-0.0018752
18.63,204.031,13.619,99.995,-0.0022039
18.68,204.531,13.619,99.994,-0.0017916
18.73,205.031,13.619,99.993,-0.0021082
18.78,205.531,13.618,99.992,-0.0018773
18.83,206.031,13.618,99.991,-0.0019317
18.88,206.532,13.618,99.99,-0.0018307
18.93,207.032,13.618,99.989,-0.0015582
18.98,207.532,13.618,99.988,-0.0019275
19.03,208.032,13.618,99.987,-0.0020111
19.08,208.532,13.618,99.986,-0.0020589
19.13,209.032,13.617,99.985,-0.0019729
19.18,209.532,13.617,99.984,-0.0016048
19.23,210.032,13.617,99.983,-0.0020156
19.28,210.532,13.617,99.982,-0.0016463
19.33,211.032,13.617,99.981,-0.0016077
19.38,211.532,13.617,99.98,-0.0015575
19.43,212.033,13.617,99.979,-0.0020576
19.48,212.533,13.617,99.978,-0.0022883
19.53,213.033,13.616,99.977,-0.0018737
19.58,213.533,13.616,99.976,-0.0019178
19.63,214.033,13.616,99.975,-0.0023805
19.68,214.533,13.616,99.974,-0.0021970
19.73,215.033,13.616,99.973,-0.0021501
19.78,215.533,13.616,99.972,-0.0025700
19.83,216.033,13.616,99.971,-0.0018430
19.88,216.533,13.615,99.97,-0.0021635
19.93,217.033,13.615,99.969,-0.0017891
19.98,217.533,13.615,99.968,-0.0023744
20.03,218.034,13.615,99.967,-0.0021986
20.08,218.534,13.615,99.966,-0.0022451
20.13,219.034,13.615,99.964,-0.0021993
20.18,219.534,13.615,99.963,-0.0022942
20.23,220.034,13.614,99.962,-0.0022374
20.28,220.534,13.614,99.961,-0.0020573
20.33,221.034,13.614,99.96,-0.0022370
20.38,221.534,13.614,99.959,-0.0021416
20.43,222.034,13.614,99.958,-0.0024616
20.48,222.534,13.614,99.957,-0.0024764
20.53,223.034,13.614,99.956,-0.0020638
20.58,223.535,13.613,99.955,-0.0020133
20.63,224.035,13.613,99.954,-0.0021138
20.68,224.535,13.613,99.953,-0.0019665
20.73,225.035,13.613,99.952,-0.0022387
20.78,225.535,13.613,99.95,-0.0024705
20.83,226.035,13.613,99.949,-0.0022083
20.88,226.535,13.612,99.948,-0.0022471
20.93,227.035,13.612,99.947,-0.0020189
20.98,227.535,13.612,99.946,-0.0022002
21.03,228.035,13.612,99.945,-0.0023470
21.08,228.535,13.612,99.944,-0.0030387
21.13,229.036,13.612,99.942,-0.0022518
21.18,229.536,13.612,99.941,-0.0019626
21.23,230.036,13.611,99.94,-0.0017747
21.28,230.536,13.611,99.939,-0.0027390
21.33,231.036,13.611,99.938,-0.0024254
21.38,231.536,13.611,99.937,-0.0022846
21.43,232.036,13.611,99.936,-0.0021428
21.48,232.536,13.611,99.935,-0.0019658
21.53,233.036,13.611,99.934,-0.0022802
21.58,233.536,13.61,99.932,-0.0023849
21.63,234.036,13.61,99.931,-0.0023427
21.68,234.537,13.61,99.93,-0.0022079
21.73,235.037,13.61,99.929,-0.0020208
21.78,235.537,13.61,99.928,-0.0023442
21.83,236.037,13.61,99.927,-0.0018733
21.88,236.537,13.609,99.926,-0.0018674
21.93,237.037,13.609,99.924,-0.0022389
21.98,237.537,13.609,99.923,-0.0024752
22.03,238.037,13.609,99.922,-0.0026140
22.08,238.537,13.609,99.921,-0.0021583
22.13,239.037,13.609,99.92,-0.0022942
22.18,239.537,13.608,99.919,-0.0024377
22.23,240.038,13.608,99.917,-0.0025213
22.28,240.538,13.608,99.916,-0.0022904
22.33,241.038,13.608,99.915,-0.0020608
22.38,241.538,13.608,99.914,-0.0023749
22.43,242.038,13.608,99.913,-0.0017816
22.48,242.538,13.607,99.911,-0.0022926
22.53,243.038,13.607,99.91,-0.0026525
22.58,243.538,13.607,99.909,-0.0027892
22.63,244.038,13.607,99.908,-0.0024805
22.68,244.538,13.607,99.907,-0.0022923
22.73,245.038,13.607,99.905,-0.0022446
22.78,245.538,13.606,99.904,-0.0025264
22.83,246.039,13.606,99.903,-0.0025211
22.88,246.539,13.606,99.902,-0.0024696
22.93,247.039,13.606,99.9,-0.0023867
22.98,247.539,13.606,99.899,-0.0023353
23.03,248.039,13.606,99.898,-0.0026973
23.08,248.539,13.605,99.896,-0.0031550
23.13,249.039,13.605,99.895,-0.0025178
23.18,249.539,13.605,99.894,-0.0021020
23.23,250.039,13.605,99.893,-0.0025524
23.28,250.539,13.605,99.892,-0.0022409
23.33,251.039,13.605,99.89,-0.0022898
23.38,251.54,13.604,99.889,-0.0025213
23.43,252.04,13.604,99.888,-0.0028862
23.48,252.54,13.604,99.886,-0.0028422
23.53,253.04,13.604,99.885,-0.0027523
23.58,253.54,13.604,99.884,-0.0028505
23.63,254.04,13.604,99.882,-0.0026679
23.68,254.54,13.603,99.881,-0.0027556
23.73,255.04,13.603,99.88,-0.0026205
23.78,255.54,13.603,99.878,-0.0028859
23.83,256.04,13.603,99.877,-0.0030220
23.88,256.54,13.603,99.875,-0.0027015
23.93,257.041,13.602,99.874,-0.0028058
23.98,257.541,13.602,99.873,-0.0030287
24.03,258.041,13.602,99.871,-0.0027447
24.08,258.541,13.602,99.87,-0.0028326
24.13,259.041,13.602,99.869,-0.0024179
24.18,259.541,13.601,99.867,-0.0028347
24.23,260.041,13.601,99.866,-0.0026051
24.28,260.541,13.601,99.864,-0.0028440
24.33,261.041,13.601,99.863,-0.0030678
24.38,261.541,13.601,99.862,-0.0032051
24.43,262.041,13.6,99.86,-0.0028033
24.48,262.542,13.6,99.859,-0.0030807
24.53,263.042,13.6,99.857,-0.0028899
24.58,263.542,13.6,99.856,-0.0028414
24.63,264.042,13.6,99.854,-0.0027015
24.68,264.542,13.6,99.853,-0.0028310
24.73,265.042,13.599,99.851,-0.0031964
24.78,265.542,13.599,99.85,-0.0029888
24.83,266.042,13.599,99.848,-0.0030773
24.88,266.542,13.599,99.847,-0.0027956
24.93,267.042,13.599,99.845,-0.0028837
24.98,267.542,13.598,99.844,-0.0030694
25.03,268.043,13.598,99.842,-0.0033425
25.08,268.543,13.598,99.841,-0.0028388
25.13,269.043,13.598,99.839,-0.0031669
25.18,269.543,13.597,99.838,-0.0031640
25.23,270.043,13.597,99.836,-0.0025276
25.28,270.543,13.597,99.835,-0.0025603
25.33,271.043,13.597,99.833,-0.0028316
25.38,271.543,13.597,99.832,-0.0030203
25.43,272.043,13.596,99.83,-0.0031640
25.48,272.543,13.596,99.829,-0.0031181
25.53,273.043,13.596,99.827,-0.0031152
25.58,273.543,13.596,99.826,-0.0030275
25.63,274.044,13.596,99.824,-0.0034391
25.68,274.544,13.595,99.823,-0.0033394
25.73,275.044,13.595,99.821,-0.0030320
25.78,275.544,13.595,99.819,-0.0029368
25.83,276.044,13.595,99.818,-0.0030203
25.88,276.544,13.595,99.816,-0.0035224
25.93,277.044,13.594,99.814,-0.0033028
25.98,277.544,13.594,99.813,-0.0029304
26.03,278.044,13.594,99.811,-0.0035256
26.08,278.544,13.594,99.81,-0.0032051
26.13,279.044,13.593,99.808,-0.0034315
26.18,279.545,13.593,99.806,-0.0032491
26.23,280.045,13.593,99.804,-0.0035668
26.28,280.545,13.593,99.803,-0.0033028
26.33,281.045,13.592,99.801,-0.0031136
26.38,281.545,13.592,99.8,-0.0035204
26.43,282.045,13.592,99.798,-0.0031113
26.48,282.545,13.592,99.796,-0.0032081
26.53,283.045,13.592,99.795,-0.0031136
26.58,283.545,13.591,99.793,-0.0032139
26.63,284.045,13.591,99.791,-0.0034423
26.68,284.545,13.591,99.79,-0.0037238
26.73,285.046,13.591,99.788,-0.0033964
26.78,285.546,13.59,99.786,-0.0034341
26.83,286.046,13.59,99.785,-0.0032847
26.88,286.546,13.59,99.783,-0.0032092
26.93,287.046,13.59,99.781,-0.0032967
26.98,287.546,13.59,99.78,-0.0034315
27.03,288.046,13.589,99.778,-0.0038039
27.08,288.546,13.589,99.776,-0.0035308
27.13,289.046,13.589,99.775,-0.0035760
27.18,289.546,13.589,99.773,-0.0033945
27.23,290.046,13.588,99.771,-0.0034404
27.28,290.547,13.588,99.77,-0.0032586
27.33,291.047,13.588,99.768,-0.0032925
27.38,291.547,13.588,99.766,-0.0033364
27.43,292.047,13.587,99.764,-0.0034722
27.48,292.547,13.587,99.763,-0.0034278
27.53,293.047,13.587,99.761,-0.0034818
27.58,293.547,13.587,99.759,-0.0035276
27.63,294.047,13.587,99.758,-0.0033957
27.68,294.547,13.586,99.756,-0.0037088
27.73,295.047,13.586,99.754,-0.0036239
27.78,295.547,13.586,99.753,-0.0030678
27.83,296.048,13.586,99.751,-0.0032949
27.88,296.548,13.585,99.749,-0.0035237
27.93,297.048,13.585,99.747,-0.0037573
27.98,297.548,13.585,99.745,-0.0037531
28.03,298.048,13.585,99.744,-0.0035211
28.08,298.548,13.584,99.742,-0.0036630
28.13,299.048,13.584,99.74,-0.0033394
28.18,299.548,13.584,99.738,-0.0032918
28.23,300.048,13.584,99.737,-0.0033870
28.28,300.548,13.583,99.735,-0.0033864
28.33,301.048,13.583,99.733,-0.0037101
28.38,301.548,13.583,99.731,-0.0038039
28.43,302.049,13.583,99.729,-0.0036670
28.48,302.549,13.582,99.728,-0.0033610
28.53,303.049,13.582,99.726,-0.0038045
28.58,303.549,13.582,99.724,-0.0035714
28.63,304.049,13.582,99.722,-0.0037477
28.68,304.549,13.581,99.721,-0.0036119
28.73,305.049,13.581,99.719,-0.0034309
28.78,305.549,13.581,99.717,-0.0035308
28.83,306.049,13.581,99.715,-0.0032967
28.88,306.549,13.581,99.713,-0.0037409
28.93,307.049,13.58,99.712,-0.0037429
28.98,307.55,13.58,99.71,-0.0037040
29.03,308.05,13.58,99.708,-0.0038426
29.08,308.55,13.58,99.706,-0.0039858
29.13,309.05,13.579,99.704,-0.0034354
29.18,309.55,13.579,99.703,-0.0035276
29.23,310.05,13.579,99.701,-0.0033945
29.28,310.55,13.579,99.699,-0.0036192
29.33,311.05,13.578,99.697,-0.0035225
29.38,311.55,13.578,99.695,-0.0037081
29.43,312.05,13.578,99.693,-0.0038441
29.48,312.55,13.578,99.691,-0.0039835
29.53,313.051,13.577,99.69,-0.0038164
29.58,313.551,13.577,99.688,-0.0036239
29.63,314.051,13.577,99.686,-0.0039284
29.68,314.551,13.577,99.684,-0.0035694
29.73,315.051,13.576,99.682,-0.0040736
29.78,315.551,13.576,99.68,-0.0037990
29.83,316.051,13.576,99.678,-0.0038095
29.88,316.551,13.575,99.676,-0.0038554
29.93,317.051,13.575,99.675,-0.0035813
29.98,317.551,13.575,99.673,-0.0034837
30.03,318.051,13.575,99.671,-0.0037109
30.08,318.552,13.574,99.669,-0.0038919
30.13,319.052,13.574,99.667,-0.0042147
30.18,319.552,13.574,99.665,-0.0040278
30.23,320.052,13.574,99.663,-0.0038813
30.28,320.552,13.573,99.661,-0.0036086
30.33,321.052,13.573,99.659,-0.0040256
30.38,321.552,13.573,99.657,-0.0036630
30.43,322.052,13.573,99.655,-0.0038848
30.48,322.552,13.572,99.654,-0.0037948
30.53,323.052,13.572,99.652,-0.0037456
30.58,323.552,13.572,99.65,-0.0040293
30.63,324.053,13.572,99.648,-0.0039886
30.68,324.553,13.571,99.646,-0.0042755
30.73,325.053,13.571,99.644,-0.0041232
30.78,325.553,13.571,99.642,-0.0042140
30.83,326.053,13.57,99.64,-0.0043932
30.88,326.553,13.57,99.638,-0.0038482
30.93,327.053,13.57,99.636,-0.0037210
30.98,327.553,13.57,99.634,-0.0038941
31.03,328.053,13.569,99.632,-0.0037539
31.08,328.553,13.569,99.63,-0.0038933
31.13,329.053,13.569,99.628,-0.0038905
31.18,329.553,13.569,99.626,-0.0043419
31.23,330.054,13.568,99.624,-0.0038370
31.28,330.554,13.568,99.622,-0.0041553
31.33,331.054,13.568,99.62,-0.0035276
31.38,331.554,13.568,99.618,-0.0045745
31.43,332.054,13.567,99.616,-0.0041652
31.48,332.554,13.567,99.614,-0.0041133
31.53,333.054,13.567,99.612,-0.0037934
31.58,333.554,13.566,99.61,-0.0041133
31.63,334.054,13.566,99.608,-0.0043040
31.68,334.554,13.566,99.606,-0.0041728
31.73,335.054,13.566,99.603,-0.0044937
31.78,335.555,13.565,99.601,-0.0045354
31.83,336.055,13.565,99.599,-0.0046305
31.88,336.555,13.565,99.597,-0.0040729
31.93,337.055,13.564,99.595,-0.0042063
31.98,337.555,13.564,99.593,-0.0046245
32.03,338.055,13.564,99.59,-0.0045854
32.08,338.555,13.563,99.588,-0.0045413
32.13,339.055,13.563,99.586,-0.0040307
32.18,339.555,13.563,99.583,-0.0043539
32.23,340.055,13.563,99.581,-0.0044855
32.28,340.555,13.562,99.579,-0.0043474
32.33,341.056,13.562,99.577,-0.0046703
32.38,341.556,13.562,99.574,-0.0048876
32.43,342.056,13.561,99.572,-0.0051188
32.48,342.556,13.561,99.57,-0.0048939
32.53,343.056,13.561,99.567,-0.0047558
32.58,343.556,13.56,99.565,-0.0048051
32.63,344.056,13.56,99.562,-0.0047178
32.68,344.556,13.56,99.56,-0.0046305
32.73,345.056,13.559,99.557,-0.0048139
32.78,345.556,13.559,99.555,-0.0049055
32.83,346.056,13.559,99.553,-0.0050046
32.88,346.557,13.558,99.55,-0.0053182
32.93,347.057,13.558,99.547,-0.0052246
32.98,347.557,13.558,99.545,-0.0053241
33.03,348.057,13.557,99.542,-0.0050870
33.08,348.557,13.557,99.54,-0.0052169
33.13,349.057,13.557,99.537,-0.0051749
33.18,349.557,13.556,99.534,-0.0054118
33.23,350.057,13.556,99.532,-0.0050459
33.28,350.557,13.555,99.529,-0.0054029
33.33,351.057,13.555,99.527,-0.0053881
33.38,351.557,13.555,99.524,-0.0052464
33.43,352.058,13.554,99.521,-0.0056144
33.48,352.558,13.554,99.518,-0.0056756
33.53,353.058,13.554,99.516,-0.0055759
33.58,353.558,13.553,99.513,-0.0059012
33.63,354.058,13.553,99.51,-0.0060362
33.68,354.558,13.552,99.507,-0.0055403
33.73,355.058,13.552,99.504,-0.0055535
33.78,355.558,13.552,99.501,-0.0055372
33.83,356.058,13.551,99.498,-0.0060384
33.88,356.558,13.551,99.495,-0.0059448
33.93,357.058,13.55,99.492,-0.0062271
33.98,357.558,13.55,99.489,-0.0060473
34.03,358.059,13.55,99.486,-0.0065441
34.08,358.559,13.549,99.483,-0.0066813
34.14,359.059,13.549,99.479,-0.0062316
34.19,359.559,13.548,99.476,-0.0065306
34.24,360.059,13.548,99.473,-0.0066911
34.29,360.559,13.547,99.469,-0.0069992
34.34,361.059,13.547,99.466,-0.0065055
34.39,361.559,13.546,99.463,-0.0067246
34.44,362.059,13.546,99.459,-0.0068099
34.49,362.559,13.545,99.456,-0.0069991
34.54,363.059,13.545,99.452,-0.0073650
34.59,363.56,13.544,99.448,-0.0071807
34.64,364.06,13.544,99.445,-0.0066935
34.69,364.56,13.543,99.441,-0.0074244
34.74,365.06,13.543,99.437,-0.0073718
34.79,365.56,13.542,99.433,-0.0076396
34.84,366.06,13.542,99.43,-0.0078726
34.89,366.56,13.541,99.426,-0.0079096
34.94,367.06,13.541,99.422,-0.0080054
34.99,367.56,13.54,99.418,-0.0082065
35.04,368.06,13.54,99.413,-0.0082418
35.09,368.56,13.539,99.409,-0.0086033
35.14,369.061,13.539,99.405,-0.0087912
35.19,369.561,13.538,99.401,-0.0083914
35.24,370.061,13.537,99.396,-0.0087751
35.29,370.561,13.537,99.392,-0.0087326
35.34,371.061,13.536,99.387,-0.0093761
35.39,371.561,13.535,99.383,-0.0096066
35.44,372.061,13.535,99.378,-0.0098480
35.49,372.561,13.534,99.373,-0.0098353
35.54,373.061,13.533,99.368,-0.0101574
35.59,373.561,13.533,99.363,-0.0101686
35.64,374.061,13.532,99.357,-0.0109174
35.69,374.562,13.531,99.352,-0.0106119
35.74,375.062,13.531,99.346,-0.0108976
35.79,375.562,13.53,99.341,-0.0111619
35.84,376.062,13.529,99.335,-0.0116131
35.89,376.562,13.528,99.329,-0.0119746
35.94,377.062,13.527,99.323,-0.0123513
35.99,377.562,13.527,99.317,-0.0128780
36.04,378.062,13.526,99.311,-0.0130952
36.09,378.562,13.525,99.304,-0.0133700
36.14,379.062,13.524,99.297,-0.0138127
36.19,379.562,13.523,99.29,-0.0138635
36.24,380.063,13.522,99.284,-0.0140947
36.29,380.563,13.521,99.276,-0.0147623
36.34,381.063,13.52,99.269,-0.0150657
36.39,381.563,13.519,99.261,-0.0153397
36.44,382.063,13.518,99.253,-0.0158223
36.49,382.563,13.517,99.245,-0.0165293
36.54,383.063,13.516,99.237,-0.0169111
36.59,383.563,13.514,99.228,-0.0172161
36.64,384.063,13.513,99.22,-0.0176417
36.69,384.563,13.512,99.211,-0.0178114
36.74,385.063,13.511,99.202,-0.0184404
36.79,385.563,13.51,99.192,-0.0192731
36.84,386.064,13.508,99.183,-0.0194388
36.89,386.564,13.507,99.173,-0.0201192
36.94,387.064,13.506,99.163,-0.0206157
36.99,387.564,13.504,99.153,-0.0211725
37.04,388.064,13.503,99.142,-0.0215722
37.09,388.564,13.501,99.131,-0.0218921
37.14,389.064,13.5,99.12,-0.0225984
37.19,389.564,13.498,99.108,-0.0230185
37.24,390.064,13.497,99.097,-0.0237507
37.29,390.564,13.495,99.085,-0.0240710
37.34,391.064,13.493,99.072,-0.0249314
37.39,391.565,13.491,99.06,-0.0256539
37.44,392.065,13.49,99.047,-0.0259835
37.49,392.565,13.488,99.034,-0.0270345
37.54,393.065,13.486,99.02,-0.0275229
37.59,393.565,13.484,99.006,-0.0281399
37.64,394.065,13.482,98.992,-0.0285321
37.69,394.565,13.48,98.978,-0.0295034
37.74,395.065,13.478,98.963,-0.0301007
37.79,395.565,13.476,98.948,-0.0307981
37.84,396.065,13.474,98.932,-0.0312614
37.89,396.565,13.472,98.916,-0.0321252
37.94,397.066,13.47,98.9,-0.0332540
37.99,397.566,13.467,98.883,-0.0337727
38.04,398.066,13.465,98.866,-0.0346625
38.09,398.566,13.463,98.849,-0.0354071
38.14,399.066,13.46,98.831,-0.0363295
38.19,399.566,13.458,98.812,-0.0377523
38.24,400.066,13.455,98.793,-0.0384615
38.29,400.566,13.453,98.774,-0.0395099
38.34,401.066,13.45,98.754,-0.0402072
38.39,401.566,13.447,98.733,-0.0414220
38.44,402.066,13.444,98.712,-0.0425521
38.49,402.567,13.441,98.69,-0.0434763
38.54,403.067,13.438,98.668,-0.0448165
38.59,403.567,13.435,98.646,-0.0460755
38.64,404.067,13.432,98.622,-0.0469725
38.69,404.567,13.429,98.599,-0.0486251
38.74,405.067,13.425,98.574,-0.0496807
38.79,405.567,13.422,98.549,-0.0511675
38.84,406.067,13.418,98.523,-0.0522831
38.89,406.567,13.415,98.498,-0.0536400
38.94,407.067,13.411,98.471,-0.0552708
38.99,407.567,13.407,98.443,-0.0554894
39.04,408.068,13.404,98.414,-0.0577451
39.09,408.568,13.4,98.385,-0.0582035
39.14,409.068,13.396,98.356,-0.0603811
39.19,409.568,13.391,98.325,-0.0614582
39.24,410.068,13.387,98.294,-0.0627971
39.29,410.568,13.383,98.262,-0.0641904
39.34,411.068,13.378,98.229,-0.0661644
39.39,411.568,13.374,98.196,-0.0684562
39.44,412.068,13.369,98.161,-0.0702668
39.49,412.568,13.364,98.125,-0.0720292
39.54,413.068,13.359,98.089,-0.0740114
39.59,413.568,13.354,98.051,-0.0762162
39.64,414.069,13.349,98.012,-0.0783452
39.69,414.569,13.343,97.973,-0.0802656
39.74,415.069,13.338,97.931,-0.0885176
39.79,415.569,13.332,97.886,-0.0911757
39.84,416.069,13.325,97.839,-0.0981521
39.89,416.569,13.318,97.789,-0.1011800
39.94,417.069,13.311,97.737,-0.1069010
39.99,417.569,13.304,97.682,-0.1101350
40.04,418.069,13.296,97.622,-0.1228520
40.09,418.569,13.287,97.559,-0.1208200
40.14,419.069,13.278,97.495,-0.1322480
40.19,419.57,13.269,97.427,-0.1332270
40.24,420.07,13.26,97.359,-0.1365010
40.29,420.57,13.25,97.288,-0.1479930
40.34,421.07,13.24,97.212,-0.1517820
40.38,421.57,13.23,97.138,-0.1569350
40.44,422.07,13.219,97.056,-0.1568740
40.49,422.57,13.207,96.974,-0.1667730
40.54,423.07,13.196,96.891,-0.1706120
40.59,423.57,13.184,96.806,-0.1689510
40.64,424.07,13.173,96.718,-0.1806470
40.69,424.57,13.16,96.628,-0.1804390
40.74,425.071,13.148,96.537,-0.1854750
40.79,425.571,13.135,96.445,-0.1863680
40.84,426.071,13.122,96.349,-0.1878430
40.89,426.571,13.109,96.251,-0.1990010
40.94,427.071,13.095,96.15,-0.2115030
40.99,427.571,13.081,96.046,-0.2078590
41.04,428.071,13.067,95.94,-0.2157160
41.09,428.571,13.052,95.831,-0.2215750
41.14,429.071,13.036,95.716,-0.2310050
41.19,429.571,13.02,95.601,-0.2378770
41.24,430.071,13.004,95.48,-0.2416620
41.29,430.572,12.987,95.354,-0.2606280
41.34,431.072,12.969,95.223,-0.2700350
41.39,431.572,12.951,95.088,-0.2786940
41.44,432.072,12.932,94.949,-0.2870610
41.49,432.572,12.912,94.805,-0.2941740
41.54,433.072,12.892,94.657,-0.3014250
41.59,433.572,12.871,94.504,-0.3138110
41.64,434.072,12.849,94.344,-0.3263040
41.69,434.572,12.827,94.182,-0.3275160
41.74,435.072,12.804,94.013,-0.3411930
41.79,435.572,12.78,93.836,-0.3580490
41.84,436.073,12.755,93.655,-0.3698110
41.89,436.573,12.73,93.465,-0.3819270
41.94,437.073,12.703,93.272,-0.3807860
41.99,437.573,12.676,93.071,-0.4060850
42.04,438.073,12.647,92.862,-0.4239590
42.09,438.573,12.618,92.644,-0.4421980
42.14,439.073,12.587,92.419,-0.4583870
42.19,439.573,12.555,92.185,-0.4895800
42.24,440.073,12.522,91.942,-0.4974880
42.29,440.573,12.488,91.689,-0.5167030
42.34,441.073,12.451,91.423,-0.5455220
42.39,441.573,12.414,91.145,-0.5760960
42.44,442.074,12.374,90.854,-0.6120880
42.49,442.574,12.332,90.546,-0.6120530
42.54,443.074,12.288,90.224,-0.6398810
42.59,443.574,12.242,89.889,-0.6652820
42.64,444.074,12.195,89.539,-0.7042920
42.69,444.574,12.145,89.176,-0.7507830
42.74,445.074,12.092,88.787,-0.7727440
42.79,445.574,12.039,88.397,-0.7846680
42.84,446.074,11.984,87.993,-0.8223880
42.89,446.574,11.928,87.581,-0.8291670
42.94,447.074,11.869,87.145,-0.9322050
42.99,447.575,11.804,86.67,-0.9310810
43.04,448.075,11.738,86.187,-1.01078
43.09,448.575,11.666,85.657,-1.06762
43.14,449.075,11.591,85.107,-1.12722
43.19,449.575,11.513,84.533,-1.16008
43.24,450.075,11.437,83.976,-1.09652
43.29,450.575,11.364,83.441,-1.07871
43.34,451.075,11.288,82.88,-1.19479
43.39,451.575,11.201,82.243,-1.35183
43.44,452.075,11.107,81.554,-1.39826
43.49,452.575,11.014,80.867,-1.36139
43.54,453.076,10.922,80.192,-1.38012
43.59,453.576,10.826,79.491,-1.48927
43.64,454.076,10.719,78.702,-1.60335
43.69,454.576,10.609,77.899,-1.55205
43.74,455.076,10.497,77.075,-1.69746
43.79,455.576,10.379,76.21,-1.75284
43.84,456.076,10.257,75.312,-1.82979
43.89,456.576,10.132,74.391,-1.83123
43.94,457.076,10.002,73.437,-1.95764
43.99,457.576,9.865,72.43,-2.04357
44.04,458.076,9.722,71.386,-2.11381
44.09,458.577,9.577,70.319,-2.16087
44.14,459.077,9.426,69.211,-2.29347
44.19,459.577,9.265,68.026,-2.26892
44.24,460.077,9.104,66.843,-2.42488
44.29,460.577,8.936,65.61,-2.50592
44.34,461.077,8.763,64.343,-2.56625
44.39,461.577,8.583,63.022,-2.67859
44.44,462.077,8.399,61.667,-2.78293
44.49,462.577,8.208,60.264,-2.82829
44.54,463.077,8.011,58.821,-2.90716
44.59,463.577,7.812,57.356,-2.98437
44.64,464.078,7.604,55.834,-3.08733
44.69,464.578,7.389,54.254,-3.19293
44.74,465.078,7.169,52.638,-3.26387
44.79,465.578,6.948,51.012,-3.307
44.84,466.078,6.718,49.325,-3.4604
44.89,466.578,6.482,47.591,-3.50412
44.94,467.078,6.242,45.83,-3.52338
44.99,467.578,5.998,44.042,-3.47645
45.04,468.078,5.753,42.242,-3.65287
45.09,468.578,5.501,40.388,-3.77046
45.14,469.078,5.244,38.506,-3.77485
45.19,469.578,4.981,36.574,-3.87219
45.24,470.079,4.717,34.633,-3.84586
45.29,470.579,4.456,32.717,-3.80059
45.34,471.079,4.194,30.794,-3.78629
45.39,471.579,3.922,28.798,-3.77498
45.44,472.079,3.658,26.857,-3.97075
45.49,472.579,3.395,24.931,-3.87074
45.54,473.079,3.136,23.023,-3.74519
45.59,473.579,2.88,21.144,-3.71766
45.64,474.079,2.626,19.284,-3.64565
45.69,474.579,2.405,17.658,-3.10535
45.74,475.079,2.192,16.095,-3.28779
45.79,475.58,1.969,14.455,-3.1839
45.84,476.08,1.759,12.918,-2.98749
45.89,476.58,1.555,11.42,-2.88985
45.94,477.08,1.359,9.982,-2.7716
45.99,477.58,1.182,8.677,-2.57421
46.04,478.08,1.007,7.394,-2.3559
46.09,478.58,0.8510000,6.246,-2.07174
46.14,479.08,0.7230000,5.305,-1.90541
46.19,479.58,0.5990000,4.401,-1.70817
46.24,480.08,0.4900000,3.597,-1.50674
46.29,480.58,0.3940000,2.894,-1.3242
46.34,481.081,0.3120000,2.292,-1.07423
46.38,481.581,0.2460000,1.805,-0.9059540
46.43,482.081,0.1900000,1.398,-0.7401490
46.48,482.581,0.1460000,1.076,-0.5582790
46.53,483.081,0.1120000,0.8250000,-0.4301720
46.58,483.581,0.0870000,0.6410000,-0.3338350
46.63,484.081,0.0680000,0.4980000,-0.2430830
46.68,484.581,0.0540000,0.3950000,-0.1721300
46.73,485.081,0.0440000,0.3230000,-0.1170670
46.78,485.581,0.0380000,0.2770000,-0.0735939
46.83,486.081,0.0340000,0.2490000,-0.0410321
46.88,486.582,0.0310000,0.2280000,-0.0432554
46.93,487.082,0.0280000,0.2070000,-0.0404998
46.98,487.582,0.0260000,0.1870000,-0.0354658
47.03,488.082,0.0230000,0.1710000,-0.0301121
47.08,488.582,0.0210000,0.1580000,-0.0246721
47.13,489.082,0.0200000,0.1470000,-0.0195095
47.18,489.582,0.0190000,0.1380000,-0.0153012
47.24,490.082,0.0180000,0.1310000,-0.0120869
47.29,490.582,0.0170000,0.1260000,-0.0093195
47.34,491.082,0.0170000,0.1210000,-0.0072753
47.39,491.582,0.0160000,0.1180000,-0.0061536
47.44,492.083,0.0160000,0.1150000,-0.0050180
47.49,492.583,0.0150000,0.1130000,-0.0041863
47.54,493.083,0.0150000,0.1120000,-0.0032197
47.59,493.583,0.0150000,0.1100000,-0.0025163
47.64,494.083,0.0150000,0.1090000,-0.0015945
47.69,494.583,0.0150000,0.1080000,-0.0010877
47.74,495.083,0.0150000,0.1080000,-0.0010244
47.79,495.583,0.0150000,0.1070000,-0.0011685
47.84,496.083,0.0150000,0.1070000,-0.0006029
47.89,496.583,0.0140000,0.1060000,-0.0010567
47.94,497.083,0.0140000,0.1060000,-0.0003558
47.99,497.583,0.0140000,0.1060000,-0.0004097
48.04,498.084,0.0140000,0.1060000,-0.0005812
48.09,498.584,0.0140000,0.1050000,-0.0007179
48.14,499.084,0.0140000,0.1050000,-0.0003722
48.19,499.584,0.0140000,0.1050000,-0.0001392
48.24,500.084,0.0140000,0.1050000,-0.0003649
48.29,500.584,0.0140000,0.1050000,-0.0001843
48.34,501.084,0.0140000,0.1050000,-0.0000238
48.39,501.584,0.0140000,0.1050000,0.0000398
48.44,502.084,0.0140000,0.1040000,-0.0004003
48.49,502.584,0.0140000,0.1040000,-0.0002187
48.54,503.084,0.0140000,0.1040000,-0.0003920
48.59,503.585,0.0140000,0.1040000,-0.0000645
48.64,504.085,0.0140000,0.1040000,-0.0003107
48.69,504.585,0.0140000,0.1040000,-0.0002905
48.73,505.085,0.0140000,0.1040000,-0.0005918
48.78,505.585,0.0140000,0.1040000,-0.0004386
48.83,506.085,0.0140000,0.1040000,-0.0002672
48.88,506.585,0.0140000,0.1030000,-0.0002750
48.93,507.085,0.0140000,0.1030000,0.0002390
48.98,507.585,0.0140000,0.1030000,-0.0002389
49.03,508.085,0.0140000,0.1030000,-0.0001370
49.08,508.585,0.0140000,0.1030000,-0.0001446
49.13,509.086,0.0140000,0.1030000,-0.0000346
49.18,509.586,0.0140000,0.1030000,-0.0002537
49.23,510.086,0.0140000,0.1030000,-0.0003816
49.28,510.586,0.0140000,0.1030000,-0.0002172
49.33,511.086,0.0140000,0.1030000,-0.0002566
49.38,511.586,0.0140000,0.1030000,-0.0001488
49.43,512.086,0.0140000,0.1030000,0.0003556
49.48,512.586,0.0140000,0.1030000,-0.0005182
49.53,513.086,0.0140000,0.1030000,-0.0004554
49.58,513.586,0.0140000,0.1030000,-0.0000174
49.63,514.086,0.0140000,0.1030000,0.0001834
49.68,514.587,0.0140000,0.1030000,-0.0003515
49.73,515.087,0.0140000,0.1030000,-0.0001743
49.78,515.587,0.0140000,0.1030000,-0.0000897
49.83,516.087,0.0140000,0.1030000,0.0000732
49.88,516.587,0.0140000,0.1030000,0.0000013
49.93,517.087,0.0140000,0.1030000,-0.0003436
49.98,517.587,0.0140000,0.1030000,-0.0003746
50.03,518.087,0.0140000,0.1020000,-0.0006428
50.08,518.587,0.0140000,0.1020000,-0.0002808
50.13,519.087,0.0140000,0.1020000,-0.0001513
50.18,519.587,0.0140000,0.1020000,-0.0000558
50.23,520.088,0.0140000,0.1020000,-0.0001790
50.28,520.588,0.0140000,0.1020000,-0.0000048
50.33,521.088,0.0140000,0.1020000,-0.0005292
50.38,521.588,0.0140000,0.1020000,-0.0004802
50.43,522.088,0.0140000,0.1020000,-0.0002602
50.48,522.588,0.0140000,0.1020000,-0.0000870
50.53,523.088,0.0140000,0.1020000,-0.0002938
50.58,523.588,0.0140000,0.1010000,0.0000787
50.63,524.088,0.0140000,0.1010000,-0.0001735
50.68,524.588,0.0140000,0.1010000,-0.0002890
50.73,525.088,0.0140000,0.1010000,0.0000213
50.78,525.588,0.0140000,0.1010000,-0.0003276
50.83,526.089,0.0140000,0.1010000,0.0001511
50.88,526.589,0.0140000,0.1010000,-0.0000190
50.93,527.089,0.0140000,0.1010000,-0.0000684
50.98,527.589,0.0140000,0.1010000,-0.0003477
51.03,528.089,0.0140000,0.1010000,-0.0002775
51.08,528.589,0.0140000,0.1010000,-0.0000554
51.13,529.089,0.0140000,0.1010000,0.0000735
51.18,529.589,0.0140000,0.1010000,0.0000425
51.23,530.089,0.0140000,0.1010000,-0.0002132
51.28,530.589,0.0140000,0.1010000,-0.0000039
51.33,531.089,0.0140000,0.1010000,-0.0001331
51.38,531.59,0.0140000,0.1010000,-0.0003591
51.43,532.09,0.0140000,0.1010000,0.0000684
51.48,532.59,0.0140000,0.1000000,0.0000243
51.53,533.09,0.0140000,0.1000000,-0.0000086
51.58,533.59,0.0140000,0.1000000,0.0000281
51.63,534.09,0.0140000,0.1000000,-0.0000085
51.68,534.59,0.0140000,0.1000000,-0.0002207
51.73,535.09,0.0140000,0.1000000,-0.0000738
51.78,535.59,0.0140000,0.1000000,-0.0003671
51.83,536.09,0.0140000,0.1000000,-0.0003421
51.88,536.59,0.0140000,0.1000000,-0.0000791
51.93,537.091,0.0140000,0.1000000,-0.0003741
51.98,537.591,0.0140000,0.1000000,-0.0002218
52.03,538.091,0.0140000,0.1000000,-0.0000511
52.08,538.591,0.0140000,0.1000000,-0.0002611
52.13,539.091,0.0140000,0.0990000,-0.0004648
52.18,539.591,0.0140000,0.0990000,-0.0003243
52.23,540.091,0.0140000,0.0990000,-0.0002859
52.28,540.591,0.0140000,0.0990000,-0.0000079
52.33,541.091,0.0140000,0.0990000,0.0002299
52.38,541.591,0.0140000,0.0990000,-0.0002054
52.43,542.091,0.0140000,0.0990000,-0.0002775
52.48,542.592,0.0130000,0.0990000,0.0000213
52.53,543.092,0.0130000,0.0990000,-0.0003939
52.58,543.592,0.0130000,0.0990000,0.0000060
52.63,544.092,0.0130000,0.0990000,-0.0002097
52.68,544.592,0.0130000,0.0990000,0.0002323
52.73,545.092,0.0130000,0.0990000,-0.0001331
52.78,545.592,0.0130000,0.0980000,0.0000363
52.83,546.092,0.0130000,0.0980000,-0.0001024
52.88,546.592,0.0130000,0.0980000,-0.0003276
52.93,547.092,0.0130000,0.0980000,-0.0001714
52.98,547.592,0.0130000,0.0980000,-0.0002535
53.03,548.093,0.0130000,0.0980000,-0.0003740
53.08,548.593,0.0130000,0.0980000,-0.0001161
53.13,549.093,0.0130000,0.0980000,-0.0003315
53.18,549.593,0.0130000,0.0980000,0.0001066
53.23,550.093,0.0130000,0.0980000,-0.0002995
53.28,550.593,0.0130000,0.0970000,-0.0001621
53.33,551.093,0.0130000,0.0970000,-0.0000921
53.38,551.593,0.0130000,0.0970000,-0.0004098
53.43,552.093,0.0130000,0.0970000,0.0000175
53.48,552.593,0.0130000,0.0970000,-0.0002229
53.53,553.093,0.0130000,0.0970000,-0.0001066
53.58,553.593,0.0130000,0.0970000,-0.0000131
53.63,554.094,0.0130000,0.0970000,0.0000712
53.68,554.594,0.0130000,0.0970000,-0.0001608
53.73,555.094,0.0130000,0.0970000,-0.0000707
53.78,555.594,0.0130000,0.0970000,-0.0001967
53.83,556.094,0.0130000,0.0970000,-0.0002856
53.88,556.594,0.0130000,0.0970000,-0.0001864
53.93,557.094,0.0130000,0.0970000,-0.0002670
53.98,557.594,0.0130000,0.0970000,-0.0000551
54.03,558.094,0.0130000,0.0970000,-0.0003974
54.08,558.594,0.0130000,0.0960000,0.0000388
54.13,559.094,0.0130000,0.0960000,0.0000117
54.18,559.595,0.0130000,0.0960000,-0.0001556
54.23,560.095,0.0130000,0.0960000,0.0002212
54.28,560.595,0.0130000,0.0960000,-0.0002038
54.33,561.095,0.0130000,0.0960000,-0.0004788
54.38,561.595,0.0130000,0.0960000,-0.0003747
54.43,562.095,0.0130000,0.0960000,-0.0001874
54.48,562.595,0.0130000,0.0960000,-0.0005109
54.53,563.095,0.0130000,0.0960000,-0.0001153
54.58,563.595,0.0130000,0.0960000,0.0001525
54.63,564.095,0.0130000,0.0960000,0.0002959
54.68,564.595,0.0130000,0.0960000,-0.0003556
54.73,565.096,0.0130000,0.0960000,-0.0001807
54.78,565.596,0.0130000,0.0960000,-0.0002341
54.83,566.096,0.0130000,0.0960000,-0.0004653
54.88,566.596,0.0130000,0.0950000,-0.0001943
54.93,567.096,0.0130000,0.0950000,-0.0002251
54.98,567.596,0.0130000,0.0950000,-0.0003189
55.03,568.096,0.0130000,0.0950000,-0.0003201
55.08,568.596,0.0130000,0.0950000,-0.0002186
55.13,569.096,0.0130000,0.0950000,-0.0003801
55.18,569.596,0.0130000,0.0950000,-0.0000988
55.23,570.096,0.0130000,0.0950000,-0.0001976
55.28,570.597,0.0130000,0.0940000,-0.0002019
55.33,571.097,0.0130000,0.0940000,0.0000083
55.38,571.597,0.0130000,0.0940000,-0.0002272
55.43,572.097,0.0130000,0.0940000,-0.0004680
55.48,572.597,0.0130000,0.0940000,-0.0003197
55.53,573.097,0.0130000,0.0940000,-0.0001604
55.58,573.597,0.0130000,0.0940000,-0.0001668
55.63,574.097,0.0130000,0.0940000,-0.0001770
55.68,574.597,0.0130000,0.0930000,-0.0005468
55.73,575.097,0.0130000,0.0930000,-0.0000331
55.78,575.597,0.0130000,0.0930000,-0.0003602
55.83,576.098,0.0130000,0.0930000,-0.0004455
55.88,576.598,0.0130000,0.0930000,-0.0003894
55.93,577.098,0.0130000,0.0930000,-0.0005758
55.98,577.598,0.0130000,0.0930000,0.0000777
56.03,578.098,0.0130000,0.0920000,-0.0001714
56.08,578.598,0.0130000,0.0920000,-0.0002898
56.13,579.098,0.0130000,0.0920000,-0.0002155
56.18,579.598,0.0130000,0.0920000,-0.0005705
56.23,580.098,0.0130000,0.0920000,-0.0001240
56.28,580.598,0.0120000,0.0920000,-0.0002119
56.33,581.098,0.0120000,0.0920000,-0.0003809
56.38,581.598,0.0120000,0.0920000,-0.0005526
56.43,582.099,0.0120000,0.0910000,-0.0003009
56.48,582.599,0.0120000,0.0910000,-0.0002006
56.53,583.099,0.0120000,0.0910000,-0.0002829
56.58,583.599,0.0120000,0.0910000,-0.0003834
56.63,584.099,0.0120000,0.0910000,-0.0002325
56.68,584.599,0.0120000,0.0910000,-0.0004157
56.73,585.099,0.0120000,0.0900000,-0.0002314
56.78,585.599,0.0120000,0.0900000,-0.0000341
56.83,586.099,0.0120000,0.0900000,-0.0003029
56.88,586.599,0.0120000,0.0900000,-0.0003884
56.93,587.099,0.0120000,0.0900000,-0.0002450
56.98,587.6,0.0120000,0.0900000,-0.0004380
57.03,588.1,0.0120000,0.0890000,-0.0001365
57.08,588.6,0.0120000,0.0890000,-0.0001235
57.13,589.1,0.0120000,0.0890000,0.0000299
57.18,589.6,0.0120000,0.0890000,-0.0005614
57.22,590,0.0120000,0.0890000,-0.0004995