File: R/rHDPE_App/app/www/Output/TGA/Condensed_Data/Resin15_0__1.csv
0.7500000,30,11.197,100.009,0.0024330
0.8200000,30.5001,11.197,100.011,0.0008451
0.8800000,31.0002,11.197,100.013,0.0011022
0.9500000,31.5003,11.198,100.014,0.0014070
1,32.0004,11.198,100.014,0.0007698
1.07,32.5004,11.198,100.015,-0.0004315
1.12,33.0005,11.198,100.016,-0.0002129
1.18,33.5006,11.198,100.016,0.0029422
1.24,34.0007,11.198,100.016,-0.0011967
1.29,34.5008,11.198,100.016,0.0006707
1.35,35.0009,11.198,100.017,0.0011770
1.41,35.501,11.198,100.017,-0.0006104
1.46,36.0011,11.198,100.017,0.0008088
1.52,36.5012,11.198,100.017,0.0008039
1.57,37.0013,11.198,100.018,0.0004499
1.63,37.5013,11.198,100.018,0.0002487
1.68,38.0014,11.198,100.018,-0.0003467
1.73,38.5015,11.198,100.018,0.0013324
1.79,39.0016,11.198,100.018,0.0001476
1.84,39.5017,11.198,100.019,0.0010294
1.89,40.0018,11.198,100.019,0.0010753
1.95,40.5019,11.198,100.019,-0.0006338
2,41.002,11.198,100.019,0.0009727
2.06,41.5021,11.198,100.019,0.0003883
2.11,42.0021,11.198,100.02,-0.0001938
2.16,42.5022,11.198,100.02,0.0006288
2.21,43.0023,11.198,100.02,0.0008699
2.27,43.5024,11.198,100.021,0.0009657
2.32,44.0025,11.198,100.021,0.0012535
2.37,44.5026,11.198,100.022,0.0015404
2.43,45.0027,11.199,100.022,0.0008653
2.48,45.5028,11.199,100.023,0.0000480
2.53,46.0029,11.199,100.023,0.0013419
2.58,46.5029,11.199,100.024,0.0017702
2.63,47.003,11.199,100.024,0.0013856
2.69,47.5031,11.199,100.025,0.0015750
2.74,48.0032,11.199,100.025,0.0009052
2.79,48.5033,11.199,100.026,0.0012361
2.84,49.0034,11.199,100.026,0.0012347
2.89,49.5035,11.199,100.027,0.0006641
2.94,50.0036,11.199,100.027,0.0008995
3,50.5037,11.199,100.028,0.0009461
3.05,51.0038,11.199,100.029,0.0016062
3.1,51.5038,11.199,100.029,0.0015573
3.15,52.0039,11.199,100.03,0.0011308
3.2,52.504,11.199,100.03,0.0011761
3.26,53.0041,11.199,100.031,0.0010341
3.31,53.5042,11.2,100.031,0.0007514
3.36,54.0043,11.2,100.032,0.0013598
3.41,54.5044,11.2,100.032,0.0011711
3.46,55.0045,11.2,100.033,0.0007953
3.51,55.5046,11.2,100.034,0.0009810
3.56,56.0046,11.2,100.034,0.0009803
3.61,56.5047,11.2,100.035,0.0004199
3.66,57.0048,11.2,100.035,0.0006992
3.71,57.5049,11.2,100.035,0.0007454
3.76,58.005,11.2,100.036,0.0009313
3.82,58.5051,11.2,100.036,0.0005584
3.87,59.0052,11.2,100.037,0.0009299
3.92,59.5053,11.2,100.037,0.0008829
3.97,60.0054,11.2,100.038,0.0007429
4.02,60.5054,11.2,100.038,0.0010673
4.07,61.0055,11.2,100.039,0.0009273
4.12,61.5056,11.2,100.039,0.0009728
4.17,62.0057,11.2,100.04,0.0009262
4.22,62.5058,11.201,100.04,0.0006480
4.27,63.0059,11.201,100.041,0.0007400
4.32,63.506,11.201,100.041,0.0012016
4.37,64.0061,11.201,100.042,0.0009697
4.42,64.5062,11.201,100.042,0.0006921
4.47,65.0063,11.201,100.043,0.0003691
4.53,65.5063,11.201,100.043,0.0009226
4.58,66.0064,11.201,100.044,0.0007377
4.63,66.5065,11.201,100.044,0.0006911
4.68,67.0066,11.201,100.045,0.0006907
4.73,67.5067,11.201,100.045,0.0009203
4.78,68.0068,11.201,100.046,0.0005980
4.83,68.5069,11.201,100.046,0.0008739
4.88,69.007,11.201,100.047,0.0012410
4.93,69.5071,11.201,100.047,0.0013787
4.98,70.0071,11.201,100.047,0.0011486
5.03,70.5072,11.201,100.048,0.0010562
5.08,71.0073,11.201,100.048,0.0009644
5.13,71.5074,11.201,100.049,0.0007809
5.18,72.0075,11.202,100.049,0.0005510
5.23,72.5076,11.202,100.05,0.0009637
5.28,73.0077,11.202,100.05,0.0002754
5.33,73.5078,11.202,100.051,0.0002294
5.38,74.0079,11.202,100.051,0.0005962
5.43,74.5079,11.202,100.051,0.0001376
5.48,75.008,11.202,100.052,0.0004586
5.53,75.5081,11.202,100.052,0.0006421
5.58,76.0082,11.202,100.052,0.0006422
5.63,76.5083,11.202,100.052,0.0005044
5.68,77.0084,11.202,100.053,0.0013758
5.73,77.5085,11.202,100.053,0.0005959
5.78,78.0086,11.202,100.053,0.0007327
5.83,78.5087,11.202,100.054,0.0008702
5.88,79.0088,11.202,100.054,0.0010079
5.93,79.5088,11.202,100.055,0.0006414
5.98,80.0089,11.202,100.055,0.0005041
6.03,80.509,11.202,100.056,0.0005958
6.08,81.0091,11.202,100.056,0.0005952
6.13,81.5092,11.202,100.056,0.0009158
6.18,82.0093,11.202,100.057,0.0003207
6.23,82.5094,11.202,100.057,0.0009619
6.28,83.0095,11.202,100.057,0.0010986
6.33,83.5096,11.202,100.058,0.0011907
6.38,84.0096,11.203,100.058,0.0007785
6.43,84.5097,11.203,100.058,0.0007328
6.48,85.0098,11.203,100.058,0.0007325
6.53,85.5099,11.203,100.059,0.0007327
6.58,86.01,11.203,100.059,0.0010077
6.63,86.5101,11.203,100.059,0.0005037
6.68,87.0102,11.203,100.059,0.0007783
6.73,87.5103,11.203,100.06,0.0006869
6.78,88.0104,11.203,100.06,0.0009612
6.83,88.5104,11.203,100.06,0.0005489
6.88,89.0105,11.203,100.061,0.0006401
6.93,89.5106,11.203,100.061,-0.0000457
6.98,90.0107,11.203,100.061,0.0004114
7.03,90.5108,11.203,100.061,0.0000457
7.08,91.0109,11.203,100.061,0.0002743
7.13,91.511,11.203,100.062,0.0003658
7.18,92.0111,11.203,100.062,0.0009602
7.23,92.5112,11.203,100.062,0.0005943
7.28,93.0113,11.203,100.062,0.0006397
7.33,93.5113,11.203,100.062,0.0005487
7.38,94.0114,11.203,100.063,0.0012347
7.43,94.5115,11.203,100.063,0.0003658
7.48,95.0116,11.203,100.063,0.0006404
7.53,95.5117,11.203,100.063,0.0001373
7.58,96.0118,11.203,100.063,0.0005490
7.63,96.5119,11.203,100.063,0.0004574
7.68,97.012,11.203,100.064,0.0005488
7.73,97.5121,11.203,100.064,-0.0002742
7.78,98.0121,11.203,100.064,0.0004113
7.83,98.5122,11.203,100.064,0.0002286
7.88,99.0123,11.203,100.064,0.0001372
7.93,99.5124,11.203,100.064,0.0004575
7.98,100.013,11.203,100.064,0.0004118
8.03,100.513,11.203,100.065,0.0005031
8.08,101.013,11.203,100.065,0.0008689
8.13,101.513,11.203,100.065,0.0005943
8.18,102.013,11.203,100.065,0.0001371
8.23,102.513,11.203,100.065,0.0002741
8.28,103.013,11.203,100.066,-0.0002741
8.33,103.513,11.203,100.066,0.0000000
8.38,104.013,11.203,100.066,0.0002287
8.43,104.513,11.203,100.066,0.0001372
8.48,105.013,11.203,100.066,0.0006409
8.53,105.513,11.203,100.066,-0.0000916
8.58,106.014,11.203,100.066,0.0004124
8.63,106.514,11.203,100.066,0.0000916
8.68,107.014,11.203,100.066,-0.0001374
8.73,107.514,11.203,100.066,0.0006410
8.78,108.014,11.203,100.066,0.0004120
8.83,108.514,11.203,100.066,-0.0002290
8.88,109.014,11.203,100.066,-0.0001375
8.93,109.514,11.203,100.066,-0.0000458
8.98,110.014,11.203,100.066,0.0005956
9.03,110.514,11.203,100.067,0.0003206
9.08,111.014,11.203,100.067,-0.0004113
9.13,111.515,11.203,100.067,0.0002287
9.18,112.015,11.203,100.066,-0.0002746
9.23,112.515,11.203,100.066,-0.0000458
9.28,113.015,11.203,100.066,0.0000917
9.33,113.515,11.203,100.066,-0.0002293
9.38,114.015,11.203,100.066,-0.0001375
9.43,114.515,11.203,100.066,-0.0003663
9.48,115.015,11.203,100.066,-0.0003669
9.53,115.515,11.203,100.066,-0.0001374
9.58,116.015,11.203,100.066,-0.0002288
9.63,116.515,11.203,100.066,0.0002286
9.68,117.016,11.203,100.066,-0.0000914
9.73,117.516,11.203,100.066,0.0004576
9.78,118.016,11.203,100.066,0.0001373
9.83,118.516,11.203,100.066,0.0001833
9.88,119.016,11.203,100.066,0.0000000
9.93,119.516,11.203,100.066,-0.0000458
9.98,120.016,11.203,100.066,-0.0002288
10.03,120.516,11.203,100.066,-0.0003207
10.08,121.016,11.203,100.066,-0.0005501
10.13,121.516,11.203,100.066,-0.0000000
10.18,122.016,11.203,100.066,0.0000000
10.23,122.517,11.203,100.066,-0.0000917
10.28,123.017,11.203,100.066,-0.0001376
10.33,123.517,11.203,100.066,0.0002754
10.38,124.017,11.203,100.066,0.0002295
10.43,124.517,11.203,100.066,-0.0000458
10.48,125.017,11.203,100.066,0.0003666
10.53,125.517,11.203,100.066,0.0002745
10.58,126.017,11.203,100.066,0.0004117
10.63,126.517,11.203,100.066,0.0002747
10.68,127.017,11.203,100.067,-0.0000459
10.73,127.517,11.204,100.067,0.0004582
10.78,128.018,11.204,100.067,0.0005957
10.83,128.518,11.204,100.067,0.0004117
10.88,129.018,11.204,100.067,0.0007324
10.93,129.518,11.204,100.067,0.0001375
10.98,130.018,11.204,100.067,0.0003671
11.03,130.518,11.204,100.067,0.0005969
11.08,131.018,11.204,100.068,0.0005048
11.13,131.518,11.204,100.068,0.0003213
11.18,132.018,11.204,100.068,0.0000918
11.23,132.518,11.204,100.068,0.0001836
11.28,133.018,11.204,100.068,0.0003671
11.33,133.518,11.204,100.069,0.0002294
11.38,134.019,11.204,100.069,-0.0003672
11.43,134.519,11.204,100.069,0.0005049
11.48,135.019,11.204,100.069,0.0008702
11.53,135.519,11.204,100.069,0.0002289
11.58,136.019,11.204,100.069,0.0004126
11.63,136.519,11.204,100.069,0.0003660
11.68,137.019,11.204,100.069,0.0000458
11.73,137.519,11.204,100.069,-0.0000916
11.78,138.019,11.204,100.069,-0.0004119
11.83,138.519,11.204,100.069,-0.0004108
11.88,139.019,11.204,100.068,-0.0015511
11.93,139.52,11.204,100.068,-0.0015038
11.98,140.02,11.204,100.067,-0.0016401
12.03,140.52,11.203,100.066,-0.0018677
12.08,141.02,11.203,100.065,-0.0023203
12.13,141.52,11.203,100.064,-0.0025000
12.18,142.02,11.203,100.063,-0.0025420
12.23,142.52,11.203,100.061,-0.0022686
12.28,143.02,11.203,100.06,-0.0021335
12.33,143.52,11.203,100.059,-0.0028156
12.38,144.02,11.202,100.058,-0.0022711
12.43,144.52,11.202,100.057,-0.0020027
12.48,145.021,11.202,100.056,-0.0020063
12.53,145.521,11.202,100.055,-0.0016438
12.58,146.021,11.202,100.054,-0.0016906
12.63,146.521,11.202,100.053,-0.0015110
12.68,147.021,11.202,100.052,-0.0017415
12.73,147.521,11.202,100.051,-0.0013759
12.78,148.021,11.202,100.05,-0.0015159
12.83,148.521,11.202,100.05,-0.0017011
12.88,149.021,11.201,100.049,-0.0015172
12.93,149.521,11.201,100.048,-0.0009189
12.98,150.021,11.201,100.048,-0.0009183
13.03,150.522,11.201,100.047,-0.0004134
13.08,151.022,11.201,100.047,-0.0006426
13.13,151.522,11.201,100.046,-0.0008726
13.18,152.022,11.201,100.046,-0.0008264
13.23,152.522,11.201,100.045,-0.0010101
13.28,153.022,11.201,100.045,-0.0008727
13.33,153.522,11.201,100.045,-0.0012403
13.38,154.022,11.201,100.044,-0.0011945
13.43,154.522,11.201,100.044,-0.0011943
13.48,155.022,11.201,100.043,-0.0012397
13.53,155.522,11.201,100.043,-0.0008270
13.58,156.023,11.201,100.042,-0.0007818
13.63,156.523,11.201,100.042,-0.0004138
13.68,157.023,11.201,100.041,-0.0006435
13.73,157.523,11.201,100.041,-0.0005046
13.78,158.023,11.201,100.041,-0.0007780
13.83,158.523,11.201,100.04,-0.0011428
13.88,159.023,11.2,100.04,-0.0004117
13.93,159.523,11.2,100.04,-0.0013285
13.98,160.023,11.2,100.039,-0.0010090
14.03,160.523,11.2,100.039,-0.0007800
14.08,161.023,11.2,100.038,-0.0009181
14.13,161.523,11.2,100.038,-0.0003676
14.18,162.024,11.2,100.038,-0.0005513
14.23,162.524,11.2,100.037,-0.0005513
14.28,163.024,11.2,100.037,-0.0009187
14.33,163.524,11.2,100.036,-0.0006885
14.38,164.024,11.2,100.036,-0.0002291
14.43,164.524,11.2,100.036,-0.0006413
14.48,165.024,11.2,100.035,-0.0004585
14.53,165.524,11.2,100.035,-0.0008251
14.58,166.024,11.2,100.035,-0.0010541
14.63,166.524,11.2,100.034,-0.0011001
14.68,167.024,11.2,100.034,-0.0008251
14.73,167.525,11.2,100.033,-0.0007794
14.78,168.025,11.2,100.033,-0.0009158
14.83,168.525,11.2,100.033,-0.0009610
14.88,169.025,11.2,100.032,-0.0006864
14.93,169.525,11.2,100.032,-0.0002289
14.98,170.025,11.2,100.031,-0.0005039
15.03,170.525,11.2,100.031,-0.0008703
15.08,171.025,11.199,100.031,-0.0010071
15.13,171.525,11.199,100.03,-0.0007787
15.18,172.025,11.199,100.03,-0.0011009
15.23,172.525,11.199,100.029,-0.0011012
15.28,173.026,11.199,100.029,-0.0007339
15.33,173.526,11.199,100.029,-0.0010086
15.38,174.026,11.199,100.028,-0.0009623
15.43,174.526,11.199,100.028,-0.0008256
15.48,175.026,11.199,100.028,-0.0004128
15.53,175.526,11.199,100.027,-0.0006422
15.58,176.026,11.199,100.027,-0.0005961
15.63,176.526,11.199,100.027,-0.0007790
15.68,177.026,11.199,100.026,-0.0010521
15.73,177.526,11.199,100.026,-0.0010962
15.78,178.026,11.199,100.025,-0.0008233
15.83,178.527,11.199,100.025,-0.0014699
15.88,179.027,11.199,100.024,-0.0009660
15.93,179.527,11.199,100.024,-0.0008732
15.98,180.027,11.199,100.024,-0.0005962
16.03,180.527,11.199,100.023,-0.0010995
16.08,181.027,11.199,100.023,-0.0009636
16.13,181.527,11.199,100.022,-0.0009174
16.18,182.027,11.198,100.022,-0.0006874
16.23,182.527,11.198,100.022,-0.0009612
16.28,183.027,11.198,100.021,-0.0007778
16.33,183.527,11.198,100.021,-0.0001830
16.38,184.028,11.198,100.02,-0.0007317
16.43,184.528,11.198,100.02,-0.0007774
16.48,185.028,11.198,100.02,-0.0005944
16.53,185.528,11.198,100.019,-0.0009153
16.58,186.028,11.198,100.019,-0.0009614
16.63,186.528,11.198,100.018,-0.0010071
16.68,187.028,11.198,100.018,-0.0009626
16.73,187.528,11.198,100.017,-0.0011925
16.78,188.028,11.198,100.017,-0.0010097
16.83,188.528,11.198,100.016,-0.0006422
16.88,189.028,11.198,100.016,-0.0009160
16.93,189.528,11.198,100.016,-0.0006860
16.98,190.029,11.198,100.015,-0.0004115
17.03,190.529,11.198,100.015,-0.0005947
17.08,191.029,11.198,100.014,-0.0004575
17.13,191.529,11.198,100.014,-0.0009613
17.18,192.029,11.198,100.014,-0.0009166
17.23,192.529,11.197,100.013,-0.0007798
17.28,193.029,11.197,100.013,-0.0016502
17.33,193.529,11.197,100.012,-0.0010538
17.38,194.029,11.197,100.011,-0.0010531
17.43,194.529,11.197,100.011,-0.0011895
17.48,195.029,11.197,100.01,-0.0015647
17.53,195.53,11.197,100.01,-0.0011528
17.59,196.03,11.197,100.009,-0.0011524
17.64,196.53,11.197,100.009,-0.0015639
17.69,197.03,11.197,100.008,-0.0011011
17.74,197.53,11.197,100.008,-0.0007318
17.79,198.03,11.197,100.007,-0.0013699
17.84,198.53,11.197,100.007,-0.0013690
17.89,199.03,11.197,100.006,-0.0011872
17.94,199.53,11.197,100.005,-0.0012337
17.99,200.03,11.197,100.005,-0.0010969
18.04,200.53,11.196,100.004,-0.0010521
18.09,201.031,11.196,100.004,-0.0006407
18.14,201.531,11.196,100.003,-0.0011444
18.19,202.031,11.196,100.003,-0.0009158
18.24,202.531,11.196,100.002,-0.0005500
18.29,203.031,11.196,100.001,-0.0014665
18.34,203.531,11.196,100.001,-0.0011007
18.39,204.031,11.196,100,-0.0011470
18.44,204.531,11.196,100,-0.0011930
18.49,205.031,11.196,99.999,-0.0012841
18.54,205.531,11.196,99.999,-0.0012380
18.59,206.031,11.196,99.998,-0.0005503
18.64,206.532,11.196,99.998,-0.0011457
18.69,207.032,11.196,99.997,-0.0013285
18.74,207.532,11.196,99.997,-0.0010984
18.79,208.032,11.196,99.996,-0.0008700
18.84,208.532,11.196,99.996,-0.0011447
18.89,209.032,11.195,99.995,-0.0013281
18.94,209.532,11.195,99.994,-0.0011450
18.99,210.032,11.195,99.994,-0.0009627
19.04,210.532,11.195,99.993,-0.0008709
19.09,211.032,11.195,99.993,-0.0006418
19.14,211.532,11.195,99.992,-0.0008700
19.19,212.033,11.195,99.992,-0.0013274
19.24,212.533,11.195,99.991,-0.0009152
19.29,213.033,11.195,99.99,-0.0009153
19.34,213.533,11.195,99.99,-0.0009153
19.39,214.033,11.195,99.989,-0.0009149
19.44,214.533,11.195,99.989,-0.0014176
19.49,215.033,11.195,99.988,-0.0015563
19.54,215.533,11.195,99.987,-0.0013287
19.59,216.033,11.195,99.987,-0.0014204
19.64,216.533,11.194,99.986,-0.0013291
19.69,217.033,11.194,99.986,-0.0016503
19.74,217.533,11.194,99.985,-0.0012829
19.79,218.034,11.194,99.984,-0.0010536
19.84,218.534,11.194,99.984,-0.0010999
19.89,219.034,11.194,99.983,-0.0012378
19.94,219.534,11.194,99.982,-0.0012372
19.99,220.034,11.194,99.982,-0.0009162
20.04,220.534,11.194,99.981,-0.0011905
20.09,221.034,11.194,99.981,-0.0015587
20.14,221.534,11.194,99.98,-0.0013297
20.19,222.034,11.194,99.979,-0.0012844
20.24,222.534,11.194,99.979,-0.0020625
20.29,223.034,11.194,99.978,-0.0013736
20.34,223.535,11.193,99.977,-0.0012809
20.39,224.035,11.193,99.977,-0.0016011
20.44,224.535,11.193,99.976,-0.0015552
20.49,225.035,11.193,99.975,-0.0014188
20.54,225.535,11.193,99.975,-0.0013283
20.59,226.035,11.193,99.974,-0.0012377
20.64,226.535,11.193,99.973,-0.0013297
20.69,227.035,11.193,99.972,-0.0013298
20.74,227.535,11.193,99.971,-0.0016967
20.79,228.035,11.193,99.971,-0.0016049
20.84,228.535,11.193,99.97,-0.0017404
20.89,229.036,11.193,99.969,-0.0014169
20.94,229.536,11.193,99.969,-0.0017387
20.99,230.036,11.192,99.968,-0.0018796
21.04,230.536,11.192,99.967,-0.0011900
21.09,231.036,11.192,99.967,-0.0010523
21.14,231.536,11.192,99.966,-0.0014213
21.19,232.036,11.192,99.965,-0.0010543
21.24,232.536,11.192,99.965,-0.0011441
21.29,233.036,11.192,99.964,-0.0016962
21.34,233.536,11.192,99.963,-0.0013743
21.39,234.036,11.192,99.962,-0.0017412
21.44,234.537,11.192,99.961,-0.0008716
21.49,235.037,11.192,99.961,-0.0014674
21.54,235.537,11.192,99.96,-0.0016058
21.59,236.037,11.191,99.959,-0.0015152
21.64,236.537,11.191,99.958,-0.0017463
21.69,237.037,11.191,99.958,-0.0013762
21.74,237.537,11.191,99.957,-0.0018344
21.79,238.037,11.191,99.956,-0.0016954
21.84,238.537,11.191,99.955,-0.0018761
21.89,239.037,11.191,99.954,-0.0020119
21.94,239.537,11.191,99.954,-0.0015106
21.99,240.038,11.191,99.953,-0.0016476
22.04,240.538,11.191,99.952,-0.0016026
22.09,241.038,11.191,99.951,-0.0014197
22.14,241.538,11.19,99.951,-0.0019698
22.19,242.038,11.19,99.95,-0.0012830
22.24,242.538,11.19,99.949,-0.0016023
22.29,243.038,11.19,99.948,-0.0013736
22.34,243.538,11.19,99.947,-0.0017852
22.39,244.038,11.19,99.946,-0.0012829
22.44,244.538,11.19,99.945,-0.0018785
22.49,245.038,11.19,99.945,-0.0016972
22.54,245.538,11.19,99.944,-0.0016967
22.59,246.039,11.19,99.943,-0.0019266
22.64,246.539,11.19,99.942,-0.0018354
22.69,247.039,11.189,99.941,-0.0019257
22.74,247.539,11.189,99.94,-0.0017846
22.79,248.039,11.189,99.94,-0.0017374
22.84,248.539,11.189,99.939,-0.0016914
22.89,249.039,11.189,99.938,-0.0016464
22.94,249.539,11.189,99.937,-0.0014636
22.99,250.039,11.189,99.936,-0.0010996
23.04,250.539,11.189,99.935,-0.0016511
23.09,251.039,11.189,99.935,-0.0014672
23.14,251.54,11.189,99.934,-0.0015128
23.19,252.04,11.189,99.933,-0.0015589
23.24,252.54,11.188,99.932,-0.0015130
23.29,253.04,11.188,99.931,-0.0018786
23.34,253.54,11.188,99.93,-0.0016939
23.39,254.04,11.188,99.929,-0.0016948
23.44,254.54,11.188,99.928,-0.0016487
23.49,255.04,11.188,99.928,-0.0018323
23.54,255.54,11.188,99.927,-0.0018324
23.59,256.04,11.188,99.926,-0.0021990
23.64,256.54,11.188,99.925,-0.0016505
23.69,257.041,11.187,99.924,-0.0021101
23.74,257.541,11.187,99.923,-0.0019266
23.79,258.041,11.187,99.922,-0.0023373
23.84,258.541,11.187,99.921,-0.0019703
23.89,259.041,11.187,99.92,-0.0017408
23.94,259.541,11.187,99.919,-0.0016941
23.99,260.041,11.187,99.919,-0.0018315
24.04,260.541,11.187,99.918,-0.0017390
24.09,261.041,11.187,99.917,-0.0017399
24.14,261.541,11.187,99.916,-0.0018332
24.19,262.041,11.186,99.915,-0.0018797
24.24,262.542,11.186,99.914,-0.0012827
24.29,263.042,11.186,99.913,-0.0020147
24.34,263.542,11.186,99.912,-0.0016011
24.39,264.042,11.186,99.911,-0.0018739
24.44,264.542,11.186,99.91,-0.0023801
24.49,265.042,11.186,99.909,-0.0016957
24.54,265.542,11.186,99.908,-0.0024289
24.59,266.042,11.186,99.907,-0.0017406
24.64,266.542,11.185,99.906,-0.0024290
24.69,267.042,11.185,99.905,-0.0021109
24.74,267.542,11.185,99.904,-0.0022026
24.79,268.043,11.185,99.903,-0.0020653
24.84,268.543,11.185,99.902,-0.0022923
24.89,269.043,11.185,99.901,-0.0016040
24.94,269.543,11.185,99.9,-0.0012785
24.99,270.043,11.185,99.899,-0.0013237
25.04,270.543,11.185,99.898,-0.0014181
25.09,271.043,11.185,99.897,-0.0021560
25.14,271.543,11.184,99.896,-0.0020194
25.19,272.043,11.184,99.895,-0.0018763
25.24,272.543,11.184,99.894,-0.0020567
25.29,273.043,11.184,99.893,-0.0021461
25.34,273.543,11.184,99.892,-0.0024649
25.39,274.044,11.184,99.891,-0.0023731
25.44,274.544,11.184,99.89,-0.0019635
25.49,275.044,11.184,99.889,-0.0021500
25.54,275.544,11.183,99.888,-0.0025664
25.59,276.044,11.183,99.887,-0.0023884
25.64,276.544,11.183,99.886,-0.0020691
25.69,277.044,11.183,99.884,-0.0019775
25.74,277.544,11.183,99.883,-0.0019295
25.79,278.044,11.183,99.882,-0.0019255
25.84,278.544,11.183,99.881,-0.0021552
25.89,279.044,11.183,99.88,-0.0018824
25.94,279.545,11.182,99.879,-0.0017409
25.99,280.045,11.182,99.878,-0.0022881
26.04,280.545,11.182,99.877,-0.0024738
26.09,281.045,11.182,99.876,-0.0023823
26.14,281.545,11.182,99.874,-0.0023365
26.19,282.045,11.182,99.874,-0.0023744
26.24,282.545,11.182,99.873,-0.0027372
26.29,283.045,11.182,99.871,-0.0026557
26.34,283.545,11.181,99.87,-0.0029342
26.39,284.045,11.181,99.869,-0.0025220
26.44,284.545,11.181,99.868,-0.0021552
26.49,285.046,11.181,99.867,-0.0022488
26.54,285.546,11.181,99.865,-0.0022498
26.59,286.046,11.181,99.864,-0.0022030
26.64,286.546,11.181,99.863,-0.0022493
26.69,287.046,11.181,99.862,-0.0021540
26.74,287.546,11.18,99.861,-0.0022911
26.79,288.046,11.18,99.859,-0.0022436
26.84,288.546,11.18,99.858,-0.0024245
26.89,289.046,11.18,99.857,-0.0022416
26.94,289.546,11.18,99.856,-0.0026075
26.99,290.046,11.18,99.854,-0.0026980
27.04,290.547,11.18,99.853,-0.0025594
27.09,291.047,11.179,99.852,-0.0026523
27.14,291.547,11.179,99.851,-0.0022894
27.19,292.047,11.179,99.85,-0.0021536
27.24,292.547,11.179,99.848,-0.0024757
27.29,293.047,11.179,99.847,-0.0023866
27.34,293.547,11.179,99.846,-0.0024780
27.39,294.047,11.179,99.845,-0.0022465
27.44,294.547,11.178,99.843,-0.0023322
27.49,295.047,11.178,99.842,-0.0026051
27.54,295.547,11.178,99.841,-0.0027432
27.59,296.048,11.178,99.839,-0.0026099
27.64,296.548,11.178,99.838,-0.0030717
27.69,297.048,11.178,99.837,-0.0030774
27.74,297.548,11.178,99.835,-0.0027089
27.79,298.048,11.177,99.834,-0.0023832
27.84,298.548,11.177,99.833,-0.0026532
27.89,299.048,11.177,99.832,-0.0026508
27.94,299.548,11.177,99.83,-0.0027863
27.99,300.048,11.177,99.829,-0.0026070
28.04,300.548,11.177,99.828,-0.0026581
28.09,301.048,11.177,99.826,-0.0020661
28.14,301.548,11.176,99.825,-0.0026161
28.19,302.049,11.176,99.824,-0.0023827
28.24,302.549,11.176,99.822,-0.0028362
28.29,303.049,11.176,99.821,-0.0026499
28.34,303.549,11.176,99.819,-0.0030694
28.39,304.049,11.176,99.818,-0.0025688
28.44,304.549,11.176,99.817,-0.0028836
28.49,305.049,11.175,99.815,-0.0027905
28.54,305.549,11.175,99.814,-0.0026028
28.59,306.049,11.175,99.812,-0.0026965
28.64,306.549,11.175,99.811,-0.0026995
28.69,307.049,11.175,99.81,-0.0023352
28.74,307.55,11.175,99.808,-0.0029321
28.79,308.05,11.174,99.807,-0.0031176
28.84,308.55,11.174,99.806,-0.0027024
28.89,309.05,11.174,99.804,-0.0028831
28.94,309.55,11.174,99.803,-0.0027497
28.99,310.05,11.174,99.801,-0.0026605
29.04,310.55,11.174,99.8,-0.0026605
29.1,311.05,11.173,99.798,-0.0022465
29.15,311.55,11.173,99.797,-0.0028857
29.2,312.05,11.173,99.796,-0.0024258
29.25,312.55,11.173,99.794,-0.0024281
29.3,313.051,11.173,99.793,-0.0025211
29.35,313.551,11.173,99.792,-0.0021533
29.4,314.051,11.173,99.791,-0.0028346
29.45,314.551,11.172,99.789,-0.0033870
29.5,315.051,11.172,99.788,-0.0032498
29.55,315.551,11.172,99.786,-0.0032509
29.6,316.051,11.172,99.785,-0.0029745
29.65,316.551,11.172,99.783,-0.0030665
29.7,317.051,11.172,99.782,-0.0028388
29.75,317.551,11.171,99.78,-0.0022906
29.8,318.051,11.171,99.779,-0.0029342
29.85,318.552,11.171,99.778,-0.0027015
29.9,319.052,11.171,99.776,-0.0032479
29.95,319.552,11.171,99.775,-0.0030220
30,320.052,11.171,99.773,-0.0028388
30.05,320.552,11.17,99.772,-0.0033901
30.1,321.052,11.17,99.77,-0.0031176
30.15,321.552,11.17,99.769,-0.0028872
30.2,322.052,11.17,99.767,-0.0031147
30.25,322.552,11.17,99.765,-0.0033425
30.3,323.052,11.17,99.764,-0.0030678
30.35,323.552,11.169,99.762,-0.0036664
30.4,324.053,11.169,99.76,-0.0031639
30.45,324.553,11.169,99.759,-0.0033945
30.5,325.053,11.169,99.757,-0.0028388
30.55,325.553,11.169,99.756,-0.0031952
30.6,326.053,11.169,99.754,-0.0030110
30.65,326.553,11.168,99.753,-0.0033346
30.7,327.053,11.168,99.751,-0.0030695
30.75,327.553,11.168,99.75,-0.0031153
30.8,328.053,11.168,99.748,-0.0037615
30.85,328.553,11.168,99.746,-0.0035760
30.9,329.053,11.167,99.745,-0.0036193
30.95,329.553,11.167,99.743,-0.0031576
31,330.054,11.167,99.741,-0.0028378
31.05,330.554,11.167,99.74,-0.0032063
31.1,331.054,11.167,99.738,-0.0030315
31.15,331.554,11.166,99.736,-0.0041766
31.2,332.054,11.166,99.735,-0.0036252
31.25,332.554,11.166,99.733,-0.0034385
31.3,333.054,11.166,99.731,-0.0034811
31.35,333.554,11.166,99.729,-0.0034830
31.4,334.054,11.166,99.728,-0.0031611
31.45,334.554,11.165,99.726,-0.0031124
31.5,335.054,11.165,99.724,-0.0033444
31.55,335.555,11.165,99.723,-0.0031125
31.6,336.055,11.165,99.721,-0.0042442
31.65,336.555,11.165,99.719,-0.0036040
31.7,337.055,11.164,99.718,-0.0034153
31.75,337.555,11.164,99.716,-0.0031917
31.8,338.055,11.164,99.714,-0.0035636
31.85,338.555,11.164,99.712,-0.0027905
31.9,339.055,11.164,99.71,-0.0038123
31.95,339.555,11.163,99.708,-0.0036305
32,340.055,11.163,99.707,-0.0044610
32.05,340.555,11.163,99.705,-0.0040419
32.1,341.056,11.163,99.703,-0.0038073
32.15,341.556,11.163,99.701,-0.0034843
32.2,342.056,11.162,99.7,-0.0035728
32.25,342.556,11.162,99.698,-0.0034754
32.3,343.056,11.162,99.696,-0.0036192
32.35,343.556,11.162,99.694,-0.0036717
32.4,344.056,11.162,99.692,-0.0035760
32.45,344.556,11.161,99.69,-0.0039821
32.5,345.056,11.161,99.689,-0.0038004
32.55,345.556,11.161,99.687,-0.0038476
32.6,346.056,11.161,99.685,-0.0038420
32.65,346.557,11.161,99.683,-0.0036073
32.7,347.057,11.16,99.681,-0.0036939
32.75,347.557,11.16,99.679,-0.0037443
32.8,348.057,11.16,99.677,-0.0038004
32.85,348.557,11.16,99.675,-0.0040345
32.9,349.057,11.159,99.673,-0.0040389
32.95,349.557,11.159,99.671,-0.0039450
33,350.057,11.159,99.669,-0.0043096
33.05,350.557,11.159,99.668,-0.0039835
33.1,351.057,11.159,99.666,-0.0038848
33.15,351.557,11.158,99.664,-0.0035584
33.2,352.058,11.158,99.662,-0.0041591
33.25,352.558,11.158,99.659,-0.0043482
33.3,353.058,11.158,99.657,-0.0045330
33.35,353.558,11.157,99.655,-0.0043956
33.4,354.058,11.157,99.653,-0.0044439
33.45,354.558,11.157,99.651,-0.0040773
33.5,355.058,11.157,99.649,-0.0044430
33.55,355.558,11.156,99.647,-0.0045330
33.6,356.058,11.156,99.645,-0.0038462
33.65,356.558,11.156,99.642,-0.0042606
33.7,357.058,11.156,99.64,-0.0044414
33.75,357.558,11.156,99.638,-0.0043980
33.8,358.059,11.155,99.636,-0.0044872
33.85,358.559,11.155,99.633,-0.0048490
33.9,359.059,11.155,99.631,-0.0045762
33.95,359.559,11.154,99.629,-0.0048535
34,360.059,11.154,99.626,-0.0047187
34.05,360.559,11.154,99.624,-0.0045813
34.1,361.059,11.154,99.621,-0.0050807
34.15,361.559,11.153,99.619,-0.0049011
34.2,362.059,11.153,99.616,-0.0052198
34.25,362.559,11.153,99.614,-0.0048420
34.3,363.059,11.153,99.612,-0.0049243
34.35,363.56,11.152,99.609,-0.0056725
34.4,364.06,11.152,99.606,-0.0054079
34.45,364.56,11.152,99.604,-0.0054527
34.5,365.06,11.151,99.601,-0.0052723
34.55,365.56,11.151,99.598,-0.0054538
34.6,366.06,11.151,99.595,-0.0054487
34.65,366.56,11.15,99.593,-0.0056297
34.7,367.06,11.15,99.59,-0.0060931
34.75,367.56,11.15,99.587,-0.0058640
34.8,368.06,11.149,99.584,-0.0055841
34.85,368.56,11.149,99.581,-0.0057692
34.9,369.061,11.149,99.578,-0.0055384
34.95,369.561,11.148,99.575,-0.0060385
35,370.061,11.148,99.572,-0.0059927
35.05,370.561,11.148,99.569,-0.0062649
35.1,371.061,11.147,99.566,-0.0066368
35.15,371.561,11.147,99.562,-0.0066850
35.2,372.061,11.147,99.559,-0.0067803
35.25,372.561,11.146,99.556,-0.0066911
35.3,373.061,11.146,99.552,-0.0066453
35.35,373.561,11.145,99.549,-0.0069661
35.4,374.061,11.145,99.545,-0.0072842
35.45,374.562,11.145,99.541,-0.0071847
35.5,375.062,11.144,99.538,-0.0073718
35.55,375.562,11.144,99.534,-0.0076881
35.6,376.062,11.143,99.53,-0.0080055
35.65,376.562,11.143,99.526,-0.0082845
35.7,377.062,11.143,99.522,-0.0078755
35.75,377.562,11.142,99.518,-0.0078297
35.8,378.062,11.142,99.514,-0.0081607
35.85,378.562,11.141,99.51,-0.0080689
35.9,379.062,11.141,99.506,-0.0085654
35.95,379.562,11.14,99.501,-0.0090659
36,380.063,11.14,99.497,-0.0094236
36.05,380.563,11.139,99.492,-0.0096470
36.1,381.063,11.139,99.487,-0.0099286
36.15,381.563,11.138,99.482,-0.0102965
36.2,382.063,11.137,99.477,-0.0104281
36.25,382.563,11.137,99.472,-0.0099123
36.3,383.063,11.136,99.466,-0.0106091
36.35,383.563,11.136,99.461,-0.0108378
36.4,384.063,11.135,99.455,-0.0111557
36.45,384.563,11.134,99.45,-0.0118067
36.5,385.063,11.134,99.444,-0.0120488
36.55,385.563,11.133,99.438,-0.0120990
36.6,386.064,11.132,99.432,-0.0129698
36.65,386.564,11.132,99.425,-0.0130566
36.7,387.064,11.131,99.419,-0.0131989
36.75,387.564,11.13,99.412,-0.0133700
36.8,388.064,11.129,99.405,-0.0135481
36.85,388.564,11.129,99.398,-0.0140033
36.9,389.064,11.128,99.391,-0.0140568
36.95,389.564,11.127,99.384,-0.0140697
37,390.064,11.126,99.377,-0.0147058
37.05,390.564,11.125,99.37,-0.0150503
37.1,391.064,11.125,99.362,-0.0156908
37.15,391.565,11.124,99.354,-0.0160567
37.2,392.065,11.123,99.346,-0.0159799
37.25,392.565,11.122,99.338,-0.0166971
37.3,393.065,11.121,99.329,-0.0169748
37.35,393.565,11.12,99.321,-0.0174908
37.4,394.065,11.119,99.312,-0.0178114
37.45,394.565,11.118,99.303,-0.0179554
37.5,395.065,11.117,99.294,-0.0186424
37.55,395.565,11.116,99.284,-0.0189665
37.6,396.065,11.115,99.275,-0.0198973
37.65,396.565,11.114,99.265,-0.0205774
37.7,397.066,11.113,99.254,-0.0203643
37.75,397.566,11.111,99.244,-0.0207573
37.8,398.066,11.11,99.233,-0.0215864
37.85,398.566,11.109,99.222,-0.0221988
37.9,399.066,11.108,99.211,-0.0224606
37.95,399.566,11.106,99.199,-0.0232888
38,400.066,11.105,99.188,-0.0237682
38.05,400.566,11.104,99.176,-0.0245340
38.1,401.066,11.102,99.163,-0.0252428
38.15,401.566,11.101,99.15,-0.0257689
38.2,402.066,11.099,99.137,-0.0261978
38.25,402.567,11.098,99.124,-0.0267301
38.3,403.067,11.096,99.11,-0.0276451
38.35,403.567,11.095,99.096,-0.0283505
38.4,404.067,11.093,99.082,-0.0287772
38.45,404.567,11.092,99.067,-0.0298739
38.5,405.067,11.09,99.052,-0.0308156
38.55,405.567,11.088,99.037,-0.0313356
38.6,406.067,11.086,99.021,-0.0322890
38.65,406.567,11.085,99.005,-0.0324658
38.7,407.067,11.083,98.988,-0.0333029
38.75,407.567,11.081,98.972,-0.0344701
38.8,408.068,11.079,98.954,-0.0353678
38.85,408.568,11.077,98.936,-0.0362431
38.9,409.068,11.075,98.918,-0.0374131
38.95,409.568,11.073,98.899,-0.0383947
39,410.068,11.071,98.879,-0.0392642
39.05,410.568,11.068,98.859,-0.0405220
39.1,411.068,11.066,98.839,-0.0417888
39.15,411.568,11.064,98.818,-0.0423161
39.2,412.068,11.061,98.796,-0.0437432
39.25,412.568,11.059,98.774,-0.0452925
39.3,413.068,11.056,98.751,-0.0461249
39.35,413.568,11.054,98.728,-0.0472985
39.4,414.069,11.051,98.704,-0.0490116
39.45,414.569,11.048,98.679,-0.0499816
39.5,415.069,11.045,98.654,-0.0512562
39.55,415.569,11.042,98.628,-0.0529817
39.6,416.069,11.039,98.601,-0.0540788
39.65,416.569,11.036,98.573,-0.0557587
39.7,417.069,11.033,98.545,-0.0574818
39.75,417.569,11.03,98.516,-0.0591564
39.8,418.069,11.026,98.485,-0.0616664
39.85,418.569,11.023,98.454,-0.0637112
39.9,419.069,11.019,98.422,-0.0654120
39.95,419.57,11.016,98.389,-0.0677541
40,420.07,11.012,98.354,-0.0705656
40.05,420.57,11.008,98.318,-0.0724890
40.1,421.07,11.004,98.281,-0.0768138
40.15,421.57,10.999,98.241,-0.0815934
40.2,422.07,10.994,98.199,-0.0862163
40.25,422.57,10.989,98.155,-0.0897894
40.3,423.07,10.984,98.108,-0.0960623
40.35,423.57,10.979,98.059,-0.1022920
40.4,424.07,10.973,98.006,-0.1102860
40.45,424.57,10.966,97.95,-0.1169290
40.5,425.071,10.96,97.891,-0.1211720
40.55,425.571,10.953,97.828,-0.1306120
40.6,426.071,10.946,97.763,-0.1394840
40.65,426.571,10.938,97.693,-0.1442310
40.7,427.071,10.93,97.621,-0.1457720
40.75,427.571,10.921,97.545,-0.1526430
40.8,428.071,10.913,97.468,-0.1556620
40.85,428.571,10.903,97.387,-0.1572780
40.9,429.071,10.894,97.305,-0.1704970
40.95,429.571,10.884,97.212,-0.1927180
41,430.071,10.873,97.114,-0.1937110
41.05,430.572,10.862,97.015,-0.2007480
41.1,431.072,10.85,96.914,-0.2015080
41.15,431.572,10.839,96.811,-0.2086450
41.2,432.072,10.827,96.707,-0.2184520
41.25,432.572,10.815,96.6,-0.2163700
41.3,433.072,10.803,96.491,-0.2258090
41.35,433.572,10.79,96.377,-0.2331350
41.4,434.072,10.777,96.259,-0.2413130
41.45,434.572,10.763,96.137,-0.2567280
41.5,435.072,10.749,96.009,-0.2534830
41.55,435.572,10.734,95.877,-0.2773490
41.6,436.073,10.719,95.739,-0.2772420
41.65,436.573,10.703,95.597,-0.2815600
41.7,437.073,10.687,95.453,-0.2925590
41.75,437.573,10.67,95.303,-0.2943120
41.8,438.073,10.653,95.148,-0.3086690
41.85,438.573,10.635,94.987,-0.3364010
41.9,439.073,10.616,94.817,-0.3413960
41.95,439.573,10.596,94.642,-0.3601650
42,440.073,10.576,94.465,-0.3522530
42.05,440.573,10.556,94.283,-0.3898810
42.1,441.073,10.534,94.084,-0.3984080
42.15,441.573,10.51,93.875,-0.4416220
42.2,442.074,10.485,93.649,-0.4661090
42.25,442.574,10.459,93.413,-0.4781760
42.3,443.074,10.43,93.16,-0.5341310
42.35,443.574,10.399,92.883,-0.5813740
42.4,444.074,10.366,92.587,-0.6016000
42.45,444.574,10.332,92.287,-0.6060320
42.5,445.074,10.297,91.972,-0.6381140
42.55,445.574,10.26,91.644,-0.6676440
42.6,446.074,10.222,91.299,-0.7003820
42.65,446.574,10.18,90.927,-0.7562160
42.7,447.074,10.137,90.544,-0.7771300
42.75,447.575,10.093,90.144,-0.7956790
42.8,448.075,10.055,89.812,-0.6644040
42.85,448.575,10.019,89.492,-0.6855610
42.9,449.075,9.978,89.123,-0.8098750
42.95,449.575,9.93,88.695,-0.9248630
43,450.075,9.878,88.228,-1.00796
43.05,450.575,9.821,87.721,-1.03587
43.1,451.075,9.763,87.198,-1.08746
43.15,451.575,9.701,86.644,-1.14089
43.2,452.075,9.637,86.079,-1.16142
43.25,452.575,9.572,85.493,-1.21005
43.3,453.076,9.504,84.89,-1.20674
43.35,453.576,9.434,84.265,-1.22547
43.4,454.076,9.353,83.54,-1.41472
43.45,454.576,9.271,82.806,-1.50348
43.5,455.076,9.185,82.04,-1.53786
43.55,455.576,9.098,81.261,-1.59212
43.6,456.076,9.008,80.46,-1.68094
43.65,456.576,8.917,79.643,-1.55766
43.7,457.076,8.828,78.847,-1.72706
43.75,457.576,8.726,77.939,-1.93063
43.8,458.076,8.612,76.918,-1.80199
43.85,458.577,8.52,76.101,-1.67477
43.9,459.077,8.418,75.191,-1.91325
43.95,459.577,8.31,74.22,-1.92995
44,460.077,8.2,73.242,-1.99652
44.05,460.577,8.087,72.232,-2.08732
44.1,461.077,7.969,71.178,-2.10836
44.15,461.577,7.845,70.071,-2.27186
44.2,462.077,7.719,68.943,-2.34323
44.25,462.577,7.581,67.711,-2.3982
44.3,463.077,7.446,66.502,-2.47307
44.35,463.577,7.306,65.251,-2.56074
44.4,464.078,7.157,63.923,-2.78853
44.45,464.578,7,62.518,-2.89938
44.5,465.078,6.833,61.03,-3.11667
44.55,465.578,6.66,59.483,-3.07443
44.6,466.078,6.489,57.961,-2.53801
44.65,466.578,6.328,56.523,-3.04178
44.7,467.078,6.159,55.012,-3.04018
44.75,467.578,5.992,53.516,-2.96343
44.8,468.078,5.823,52.008,-3.16979
44.85,468.578,5.638,50.358,-3.28896
44.9,469.078,5.448,48.658,-3.10603
44.95,469.578,5.263,47.006,-3.52152
45,470.079,5.067,45.255,-3.28685
45.05,470.579,4.872,43.518,-3.51358
45.1,471.079,4.671,41.717,-3.62977
45.15,471.579,4.471,39.93,-3.64712
45.2,472.079,4.266,38.105,-3.74502
45.25,472.579,4.057,36.235,-3.79203
45.3,473.079,3.843,34.327,-3.88104
45.35,473.579,3.627,32.393,-3.86349
45.4,474.079,3.413,30.482,-3.80466
45.45,474.579,3.197,28.554,-3.78103
45.5,475.079,2.979,26.611,-3.86515
45.55,475.58,2.764,24.69,-3.85631
45.6,476.08,2.552,22.79,-3.73178
45.65,476.58,2.341,20.911,-3.83644
45.7,477.08,2.133,19.048,-3.67229
45.75,477.58,1.936,17.288,-3.56283
45.8,478.08,1.736,15.508,-3.51293
45.85,478.58,1.544,13.792,-3.35627
45.9,479.08,1.361,12.159,-3.04504
45.95,479.58,1.192,10.644,-2.96299
46,480.08,1.033,9.229,-2.82597
46.05,480.58,0.8780000,7.842,-2.63377
46.1,481.081,0.7390000,6.605,-2.34414
46.15,481.581,0.6120000,5.468,-2.1404
46.2,482.081,0.4970000,4.443,-1.85921
46.25,482.581,0.4030000,3.599,-1.61136
46.3,483.081,0.3180000,2.836,-1.41768
46.35,483.581,0.2440000,2.182,-1.16847
46.39,484.081,0.1860000,1.665,-0.9357900
46.44,484.581,0.1390000,1.24,-0.7213430
46.49,485.081,0.1020000,0.9140000,-0.5570950
46.54,485.581,0.0760000,0.6820000,-0.4165520
46.59,486.081,0.0570000,0.5090000,-0.2832840
46.64,486.582,0.0440000,0.3910000,-0.1919500
46.69,487.082,0.0350000,0.3170000,-0.1138390
46.74,487.582,0.0310000,0.2730000,-0.0631573
46.79,488.082,0.0280000,0.2480000,-0.0479356
46.84,488.582,0.0250000,0.2230000,-0.0465682
46.89,489.082,0.0230000,0.2010000,-0.0410738
46.94,489.582,0.0200000,0.1820000,-0.0341535
46.99,490.082,0.0190000,0.1670000,-0.0276686
47.04,490.582,0.0170000,0.1550000,-0.0218005
47.09,491.082,0.0160000,0.1450000,-0.0171540
47.15,491.582,0.0150000,0.1370000,-0.0133262
47.2,492.083,0.0150000,0.1310000,-0.0103115
47.25,492.583,0.0140000,0.1270000,-0.0081557
47.3,493.083,0.0140000,0.1230000,-0.0067076
47.35,493.583,0.0130000,0.1200000,-0.0050667
47.4,494.083,0.0130000,0.1180000,-0.0035211
47.45,494.583,0.0130000,0.1160000,-0.0030839
47.5,495.083,0.0130000,0.1150000,-0.0021939
47.55,495.583,0.0130000,0.1140000,-0.0018039
47.6,496.083,0.0130000,0.1130000,-0.0014432
47.65,496.583,0.0130000,0.1130000,-0.0012667
47.7,497.083,0.0130000,0.1130000,-0.0007721
47.75,497.583,0.0130000,0.1120000,-0.0006724
47.8,498.084,0.0130000,0.1120000,-0.0001804
47.85,498.584,0.0130000,0.1120000,-0.0001290
47.9,499.084,0.0120000,0.1120000,-0.0002190
47.95,499.584,0.0120000,0.1110000,-0.0000046
48,500.084,0.0120000,0.1110000,-0.0002392
48.05,500.584,0.0120000,0.1110000,-0.0001126
48.1,501.084,0.0120000,0.1110000,-0.0001520
48.15,501.584,0.0120000,0.1110000,0.0001002
48.2,502.084,0.0120000,0.1110000,-0.0002074
48.25,502.584,0.0120000,0.1110000,-0.0001636
48.3,503.084,0.0120000,0.1110000,0.0004051
48.35,503.585,0.0120000,0.1110000,0.0002409
48.4,504.085,0.0120000,0.1110000,0.0001009
48.45,504.585,0.0120000,0.1110000,0.0001760
48.5,505.085,0.0120000,0.1110000,-0.0000923
48.54,505.585,0.0120000,0.1110000,-0.0001927
48.59,506.085,0.0120000,0.1110000,0.0001628
48.64,506.585,0.0120000,0.1110000,0.0000819
48.69,507.085,0.0120000,0.1110000,-0.0001842
48.75,507.585,0.0120000,0.1120000,0.0000995
48.8,508.085,0.0130000,0.1120000,0.0001870
48.85,508.585,0.0130000,0.1120000,0.0000670
48.9,509.086,0.0130000,0.1120000,0.0004484
48.95,509.586,0.0130000,0.1120000,0.0006351
49,510.086,0.0130000,0.1120000,0.0000207
49.05,510.586,0.0130000,0.1120000,0.0000153
49.1,511.086,0.0130000,0.1120000,-0.0001777
49.15,511.586,0.0130000,0.1120000,0.0007545
49.2,512.086,0.0130000,0.1120000,0.0004192
49.24,512.586,0.0130000,0.1120000,-0.0000257
49.29,513.086,0.0130000,0.1120000,0.0003515
49.34,513.586,0.0130000,0.1120000,0.0007296
49.4,514.086,0.0130000,0.1130000,-0.0001410
49.45,514.587,0.0130000,0.1130000,-0.0001676
49.5,515.087,0.0130000,0.1130000,-0.0003251
49.55,515.587,0.0130000,0.1130000,-0.0002474
49.6,516.087,0.0130000,0.1130000,0.0000351
49.65,516.587,0.0130000,0.1130000,0.0001467
49.7,517.087,0.0130000,0.1130000,0.0001802
49.75,517.587,0.0130000,0.1130000,0.0000414
49.8,518.087,0.0130000,0.1130000,0.0003816
49.84,518.587,0.0130000,0.1130000,0.0001127
49.89,519.087,0.0130000,0.1130000,0.0003890
49.94,519.587,0.0130000,0.1130000,0.0002591
49.99,520.088,0.0130000,0.1130000,-0.0001822
50.04,520.588,0.0130000,0.1130000,0.0001588
50.09,521.088,0.0130000,0.1130000,-0.0001945
50.14,521.588,0.0130000,0.1130000,-0.0004309
50.19,522.088,0.0130000,0.1130000,-0.0001128
50.24,522.588,0.0130000,0.1130000,0.0001454
50.29,523.088,0.0130000,0.1130000,-0.0001206
50.34,523.588,0.0130000,0.1130000,-0.0002645
50.39,524.088,0.0130000,0.1130000,-0.0002424
50.44,524.588,0.0130000,0.1130000,0.0003908
50.49,525.088,0.0130000,0.1130000,0.0000855
50.54,525.588,0.0130000,0.1130000,-0.0001120
50.59,526.089,0.0130000,0.1130000,-0.0001515
50.64,526.589,0.0130000,0.1130000,0.0002530
50.69,527.089,0.0130000,0.1130000,0.0001604
50.74,527.589,0.0130000,0.1130000,0.0002071
50.79,528.089,0.0130000,0.1130000,0.0003225
50.84,528.589,0.0130000,0.1140000,0.0000445
50.89,529.089,0.0130000,0.1130000,-0.0001463
50.94,529.589,0.0130000,0.1130000,-0.0000700
50.99,530.089,0.0130000,0.1140000,0.0000573
51.04,530.589,0.0130000,0.1140000,-0.0002270
51.09,531.089,0.0130000,0.1140000,-0.0000599
51.14,531.59,0.0130000,0.1140000,-0.0003688
51.19,532.09,0.0130000,0.1140000,-0.0001201
51.24,532.59,0.0130000,0.1140000,0.0002051
51.29,533.09,0.0130000,0.1140000,-0.0000728
51.34,533.59,0.0130000,0.1140000,-0.0001023
51.39,534.09,0.0130000,0.1130000,-0.0004566
51.45,534.59,0.0130000,0.1130000,0.0004125
51.5,535.09,0.0130000,0.1130000,-0.0001367
51.54,535.59,0.0130000,0.1130000,-0.0000804
51.59,536.09,0.0130000,0.1130000,0.0002470
51.64,536.59,0.0130000,0.1130000,0.0002897
51.69,537.091,0.0130000,0.1130000,0.0002700
51.74,537.591,0.0130000,0.1130000,-0.0002654
51.79,538.091,0.0130000,0.1130000,-0.0000330
51.84,538.591,0.0130000,0.1130000,-0.0001071
51.89,539.091,0.0130000,0.1130000,-0.0002328
51.94,539.591,0.0130000,0.1130000,-0.0001728
51.99,540.091,0.0130000,0.1130000,-0.0003046
52.04,540.591,0.0130000,0.1130000,0.0001296
52.09,541.091,0.0130000,0.1130000,-0.0000601
52.14,541.591,0.0130000,0.1130000,0.0000361
52.19,542.091,0.0130000,0.1130000,0.0001487
52.24,542.592,0.0130000,0.1130000,-0.0001098
52.29,543.092,0.0130000,0.1130000,-0.0001992
52.34,543.592,0.0130000,0.1130000,-0.0001755
52.39,544.092,0.0130000,0.1130000,0.0001109
52.44,544.592,0.0130000,0.1130000,0.0000575
52.49,545.092,0.0130000,0.1130000,-0.0001303
52.54,545.592,0.0130000,0.1130000,-0.0000644
52.59,546.092,0.0130000,0.1130000,-0.0006084
52.64,546.592,0.0130000,0.1120000,-0.0003178
52.69,547.092,0.0130000,0.1120000,-0.0001024
52.74,547.592,0.0130000,0.1120000,0.0000841
52.79,548.093,0.0130000,0.1120000,-0.0001981
52.84,548.593,0.0130000,0.1120000,-0.0001480
52.89,549.093,0.0130000,0.1120000,0.0003068
52.94,549.593,0.0130000,0.1120000,-0.0002470
52.99,550.093,0.0130000,0.1120000,-0.0000995
53.04,550.593,0.0130000,0.1120000,-0.0000505
53.09,551.093,0.0130000,0.1120000,0.0000344
53.14,551.593,0.0130000,0.1120000,-0.0002608
53.19,552.093,0.0120000,0.1120000,-0.0007177
53.24,552.593,0.0120000,0.1110000,-0.0005688
53.29,553.093,0.0120000,0.1110000,-0.0001085
53.34,553.593,0.0120000,0.1110000,-0.0002650
53.39,554.094,0.0120000,0.1110000,0.0000509
53.44,554.594,0.0120000,0.1110000,-0.0002562
53.49,555.094,0.0120000,0.1110000,-0.0000201
53.54,555.594,0.0120000,0.1110000,-0.0001767
53.59,556.094,0.0120000,0.1110000,-0.0002124
53.64,556.594,0.0120000,0.1100000,-0.0004198
53.69,557.094,0.0120000,0.1100000,-0.0005268
53.74,557.594,0.0120000,0.1100000,-0.0002977
53.79,558.094,0.0120000,0.1100000,-0.0004045
53.84,558.594,0.0120000,0.1100000,-0.0000296
53.89,559.094,0.0120000,0.1100000,0.0001979
53.94,559.595,0.0120000,0.1090000,-0.0002253
53.99,560.095,0.0120000,0.1090000,-0.0002399
54.04,560.595,0.0120000,0.1090000,-0.0004777
54.09,561.095,0.0120000,0.1090000,-0.0000022
54.14,561.595,0.0120000,0.1090000,-0.0000373
54.19,562.095,0.0120000,0.1090000,-0.0005487
54.24,562.595,0.0120000,0.1080000,-0.0003918
54.29,563.095,0.0120000,0.1080000,-0.0006472
54.34,563.595,0.0120000,0.1080000,-0.0005427
54.39,564.095,0.0120000,0.1080000,-0.0005513
54.44,564.595,0.0120000,0.1080000,-0.0002839
54.49,565.096,0.0120000,0.1070000,-0.0003439
54.54,565.596,0.0120000,0.1070000,-0.0002019
54.59,566.096,0.0120000,0.1070000,-0.0002748
54.64,566.596,0.0120000,0.1070000,-0.0003984
54.69,567.096,0.0120000,0.1070000,-0.0005296
54.74,567.596,0.0120000,0.1070000,-0.0002782
54.79,568.096,0.0120000,0.1060000,-0.0006080
54.84,568.596,0.0120000,0.1060000,-0.0003096
54.89,569.096,0.0120000,0.1060000,-0.0002104
54.94,569.596,0.0120000,0.1060000,0.0001604
54.99,570.096,0.0120000,0.1060000,-0.0000670
55.04,570.597,0.0120000,0.1050000,-0.0001119
55.09,571.097,0.0120000,0.1050000,-0.0002606
55.14,571.597,0.0120000,0.1050000,-0.0004898
55.19,572.097,0.0120000,0.1050000,-0.0007306
55.24,572.597,0.0120000,0.1050000,-0.0002289
55.29,573.097,0.0120000,0.1050000,-0.0002776
55.34,573.597,0.0120000,0.1040000,-0.0006961
55.39,574.097,0.0120000,0.1040000,-0.0003802
55.44,574.597,0.0120000,0.1040000,-0.0000579
55.49,575.097,0.0120000,0.1040000,-0.0001783
55.54,575.597,0.0120000,0.1040000,-0.0000549
55.59,576.098,0.0120000,0.1040000,0.0000003
55.64,576.598,0.0120000,0.1040000,-0.0000700
55.69,577.098,0.0120000,0.1030000,-0.0003702
55.74,577.598,0.0120000,0.1030000,-0.0003997
55.79,578.098,0.0120000,0.1030000,-0.0002791
55.84,578.598,0.0120000,0.1030000,-0.0003411
55.89,579.098,0.0120000,0.1030000,0.0000373
55.94,579.598,0.0120000,0.1030000,0.0000039
55.99,580.098,0.0110000,0.1030000,-0.0001083
56.04,580.598,0.0110000,0.1030000,-0.0002337
56.09,581.098,0.0110000,0.1020000,-0.0001799
56.14,581.598,0.0110000,0.1020000,-0.0002012
56.19,582.099,0.0110000,0.1020000,-0.0002625
56.24,582.599,0.0110000,0.1020000,0.0000394
56.29,583.099,0.0110000,0.1020000,0.0001313
56.34,583.599,0.0110000,0.1020000,-0.0000917
56.39,584.099,0.0110000,0.1020000,-0.0001844
56.44,584.599,0.0110000,0.1020000,0.0000251
56.49,585.099,0.0110000,0.1020000,-0.0004537
56.54,585.599,0.0110000,0.1020000,-0.0005831
56.59,586.099,0.0110000,0.1020000,-0.0001490
56.64,586.599,0.0110000,0.1010000,-0.0004552
56.69,587.099,0.0110000,0.1010000,-0.0001278
56.74,587.6,0.0110000,0.1010000,0.0002572
56.79,588.1,0.0110000,0.1010000,0.0001710
56.84,588.6,0.0110000,0.1010000,-0.0000510
56.89,589.1,0.0110000,0.1010000,-0.0000985
56.94,589.6,0.0110000,0.1010000,0.0001475
56.98,590,0.0110000,0.1010000,-0.0003393