File: R/rHDPE_App/app/www/Output/TGA/Condensed_Data/Resin9_1__1.csv
0.6200000,30,13.853,100.012
0.6800000,30.4001,13.853,100.014
0.7400000,30.8001,13.854,100.016
0.7900000,31.2002,13.854,100.017
0.8400000,31.6003,13.854,100.019
0.9000000,32.0004,13.854,100.021
0.9500000,32.4004,13.855,100.022
0.9900000,32.8005,13.855,100.023
1.04,33.2006,13.855,100.025
1.09,33.6006,13.855,100.026
1.14,34.0007,13.855,100.027
1.18,34.4008,13.855,100.028
1.23,34.8009,13.855,100.029
1.28,35.2009,13.856,100.03
1.32,35.601,13.856,100.031
1.37,36.0011,13.856,100.032
1.41,36.4011,13.856,100.033
1.46,36.8012,13.856,100.034
1.5,37.2013,13.856,100.035
1.55,37.6014,13.856,100.035
1.59,38.0014,13.856,100.036
1.63,38.4015,13.857,100.037
1.68,38.8016,13.857,100.038
1.72,39.2016,13.857,100.038
1.76,39.6017,13.857,100.039
1.81,40.0018,13.857,100.039
1.85,40.4019,13.857,100.04
1.89,40.8019,13.857,100.041
1.93,41.202,13.857,100.041
1.98,41.6021,13.857,100.042
2.02,42.0021,13.857,100.042
2.06,42.4022,13.857,100.043
2.1,42.8023,13.857,100.043
2.15,43.2024,13.858,100.043
2.19,43.6024,13.858,100.044
2.23,44.0025,13.858,100.044
2.27,44.4026,13.858,100.045
2.31,44.8026,13.858,100.045
2.36,45.2027,13.858,100.046
2.4,45.6028,13.858,100.046
2.44,46.0029,13.858,100.047
2.48,46.4029,13.858,100.047
2.52,46.803,13.858,100.048
2.56,47.2031,13.858,100.048
2.61,47.6031,13.858,100.049
2.65,48.0032,13.858,100.049
2.69,48.4033,13.858,100.049
2.73,48.8034,13.858,100.05
2.77,49.2034,13.858,100.05
2.81,49.6035,13.858,100.051
2.85,50.0036,13.859,100.051
2.89,50.4036,13.859,100.051
2.94,50.8037,13.859,100.052
2.98,51.2038,13.859,100.052
3.02,51.6039,13.859,100.052
3.06,52.0039,13.859,100.053
3.1,52.404,13.859,100.053
3.14,52.8041,13.859,100.054
3.18,53.2041,13.859,100.054
3.22,53.6042,13.859,100.054
3.26,54.0043,13.859,100.055
3.31,54.4044,13.859,100.055
3.34,54.8044,13.859,100.056
3.39,55.2045,13.859,100.056
3.43,55.6046,13.859,100.057
3.47,56.0046,13.859,100.057
3.51,56.4047,13.859,100.057
3.55,56.8048,13.859,100.058
3.59,57.2049,13.86,100.058
3.63,57.6049,13.86,100.059
3.67,58.005,13.86,100.059
3.71,58.4051,13.86,100.06
3.75,58.8051,13.86,100.06
3.79,59.2052,13.86,100.061
3.83,59.6053,13.86,100.061
3.88,60.0054,13.86,100.062
3.91,60.4054,13.86,100.062
3.96,60.8055,13.86,100.062
4,61.2056,13.86,100.063
4.04,61.6056,13.86,100.063
4.08,62.0057,13.86,100.064
4.12,62.4058,13.86,100.064
4.16,62.8059,13.86,100.065
4.2,63.2059,13.86,100.065
4.24,63.606,13.861,100.065
4.28,64.0061,13.861,100.066
4.32,64.4061,13.861,100.066
4.36,64.8062,13.861,100.067
4.4,65.2063,13.861,100.067
4.44,65.6064,13.861,100.067
4.48,66.0064,13.861,100.068
4.52,66.4065,13.861,100.068
4.56,66.8066,13.861,100.069
4.6,67.2066,13.861,100.069
4.64,67.6067,13.861,100.07
4.68,68.0068,13.861,100.07
4.72,68.4069,13.861,100.07
4.76,68.8069,13.861,100.071
4.8,69.207,13.861,100.071
4.84,69.6071,13.861,100.072
4.88,70.0071,13.861,100.072
4.92,70.4072,13.862,100.072
4.96,70.8073,13.862,100.073
5,71.2074,13.862,100.073
5.05,71.6074,13.862,100.073
5.09,72.0075,13.862,100.074
5.13,72.4076,13.862,100.074
5.16,72.8076,13.862,100.075
5.2,73.2077,13.862,100.075
5.25,73.6078,13.862,100.075
5.29,74.0079,13.862,100.075
5.33,74.4079,13.862,100.076
5.37,74.808,13.862,100.076
5.41,75.2081,13.862,100.077
5.45,75.6081,13.862,100.077
5.49,76.0082,13.862,100.077
5.53,76.4083,13.862,100.078
5.57,76.8084,13.862,100.078
5.61,77.2084,13.862,100.078
5.65,77.6085,13.862,100.079
5.69,78.0086,13.862,100.079
5.73,78.4086,13.862,100.079
5.77,78.8087,13.862,100.079
5.81,79.2088,13.863,100.08
5.85,79.6089,13.863,100.08
5.89,80.0089,13.863,100.08
5.93,80.409,13.863,100.08
5.97,80.8091,13.863,100.081
6.01,81.2091,13.863,100.081
6.05,81.6092,13.863,100.081
6.09,82.0093,13.863,100.082
6.13,82.4094,13.863,100.082
6.17,82.8094,13.863,100.083
6.21,83.2095,13.863,100.083
6.25,83.6096,13.863,100.083
6.29,84.0096,13.863,100.083
6.33,84.4097,13.863,100.084
6.37,84.8098,13.863,100.084
6.41,85.2099,13.863,100.084
6.45,85.6099,13.863,100.084
6.49,86.01,13.863,100.084
6.53,86.4101,13.863,100.085
6.57,86.8101,13.863,100.085
6.61,87.2102,13.863,100.085
6.65,87.6103,13.863,100.086
6.69,88.0104,13.863,100.086
6.73,88.4104,13.863,100.086
6.77,88.8105,13.863,100.086
6.81,89.2106,13.863,100.087
6.85,89.6106,13.864,100.087
6.89,90.0107,13.864,100.087
6.93,90.4108,13.864,100.087
6.97,90.8109,13.864,100.088
7.01,91.2109,13.864,100.088
7.05,91.611,13.864,100.088
7.09,92.0111,13.864,100.088
7.13,92.4111,13.864,100.088
7.17,92.8112,13.864,100.089
7.21,93.2113,13.864,100.089
7.25,93.6114,13.864,100.089
7.29,94.0114,13.864,100.089
7.33,94.4115,13.864,100.09
7.37,94.8116,13.864,100.09
7.41,95.2116,13.864,100.09
7.45,95.6117,13.864,100.09
7.49,96.0118,13.864,100.09
7.53,96.4119,13.864,100.091
7.57,96.8119,13.864,100.091
7.61,97.212,13.864,100.091
7.65,97.6121,13.864,100.091
7.69,98.0121,13.864,100.091
7.73,98.4122,13.864,100.091
7.77,98.8123,13.864,100.091
7.81,99.2124,13.864,100.092
7.85,99.6124,13.864,100.092
7.89,100.013,13.864,100.092
7.93,100.413,13.864,100.092
7.97,100.813,13.864,100.092
8.01,101.213,13.864,100.093
8.05,101.613,13.864,100.093
8.09,102.013,13.864,100.093
8.13,102.413,13.864,100.093
8.17,102.813,13.864,100.093
8.21,103.213,13.864,100.093
8.25,103.613,13.864,100.094
8.29,104.013,13.865,100.094
8.33,104.413,13.865,100.094
8.37,104.813,13.865,100.094
8.41,105.213,13.865,100.094
8.45,105.614,13.865,100.094
8.49,106.014,13.865,100.094
8.53,106.414,13.865,100.094
8.57,106.814,13.865,100.094
8.61,107.214,13.865,100.094
8.65,107.614,13.865,100.095
8.69,108.014,13.865,100.095
8.73,108.414,13.865,100.095
8.77,108.814,13.865,100.095
8.81,109.214,13.865,100.095
8.85,109.614,13.865,100.095
8.89,110.014,13.865,100.095
8.93,110.414,13.865,100.095
8.97,110.814,13.865,100.095
9.01,111.215,13.865,100.095
9.05,111.615,13.865,100.095
9.09,112.015,13.865,100.096
9.13,112.415,13.865,100.096
9.17,112.815,13.865,100.096
9.21,113.215,13.865,100.096
9.25,113.615,13.865,100.096
9.29,114.015,13.865,100.096
9.33,114.415,13.865,100.095
9.37,114.815,13.865,100.095
9.41,115.215,13.865,100.095
9.45,115.615,13.865,100.095
9.49,116.015,13.865,100.095
9.53,116.415,13.865,100.095
9.57,116.816,13.865,100.096
9.61,117.216,13.865,100.095
9.65,117.616,13.865,100.095
9.69,118.016,13.865,100.095
9.73,118.416,13.865,100.095
9.77,118.816,13.865,100.095
9.81,119.216,13.865,100.095
9.85,119.616,13.865,100.095
9.89,120.016,13.865,100.095
9.93,120.416,13.865,100.095
9.97,120.816,13.865,100.095
10.01,121.216,13.865,100.095
10.05,121.616,13.865,100.095
10.09,122.016,13.865,100.095
10.13,122.417,13.865,100.096
10.17,122.817,13.865,100.095
10.21,123.217,13.865,100.095
10.25,123.617,13.865,100.095
10.29,124.017,13.865,100.095
10.33,124.417,13.865,100.095
10.37,124.817,13.865,100.095
10.41,125.217,13.865,100.095
10.45,125.617,13.865,100.096
10.49,126.017,13.865,100.096
10.53,126.417,13.865,100.096
10.57,126.817,13.865,100.096
10.61,127.217,13.865,100.096
10.65,127.617,13.865,100.095
10.69,128.018,13.865,100.095
10.73,128.418,13.865,100.095
10.77,128.818,13.865,100.095
10.81,129.218,13.865,100.095
10.85,129.618,13.865,100.095
10.89,130.018,13.865,100.095
10.93,130.418,13.865,100.095
10.97,130.818,13.865,100.095
11.01,131.218,13.865,100.095
11.05,131.618,13.865,100.095
11.09,132.018,13.865,100.095
11.13,132.418,13.865,100.095
11.17,132.818,13.865,100.095
11.21,133.218,13.865,100.095
11.25,133.619,13.865,100.095
11.29,134.019,13.865,100.094
11.33,134.419,13.865,100.094
11.37,134.819,13.865,100.094
11.41,135.219,13.865,100.094
11.45,135.619,13.865,100.094
11.49,136.019,13.865,100.094
11.53,136.419,13.865,100.094
11.57,136.819,13.865,100.094
11.61,137.219,13.865,100.094
11.65,137.619,13.865,100.094
11.69,138.019,13.865,100.094
11.73,138.419,13.865,100.094
11.77,138.819,13.865,100.094
11.81,139.22,13.865,100.094
11.85,139.62,13.865,100.095
11.89,140.02,13.865,100.095
11.93,140.42,13.865,100.095
11.97,140.82,13.865,100.095
12.01,141.22,13.865,100.095
12.05,141.62,13.865,100.095
12.09,142.02,13.865,100.095
12.13,142.42,13.865,100.095
12.17,142.82,13.865,100.095
12.21,143.22,13.865,100.095
12.25,143.62,13.865,100.095
12.29,144.02,13.865,100.095
12.33,144.42,13.865,100.095
12.37,144.821,13.865,100.095
12.41,145.221,13.865,100.095
12.45,145.621,13.865,100.095
12.49,146.021,13.865,100.096
12.53,146.421,13.865,100.096
12.57,146.821,13.865,100.096
12.61,147.221,13.865,100.096
12.65,147.621,13.865,100.096
12.69,148.021,13.865,100.096
12.73,148.421,13.865,100.095
12.78,148.821,13.865,100.095
12.82,149.221,13.865,100.095
12.85,149.621,13.865,100.095
12.89,150.021,13.865,100.095
12.93,150.422,13.865,100.095
12.97,150.822,13.865,100.094
13.01,151.222,13.865,100.094
13.05,151.622,13.864,100.094
13.09,152.022,13.864,100.093
13.13,152.422,13.864,100.093
13.18,152.822,13.864,100.092
13.22,153.222,13.864,100.092
13.25,153.622,13.864,100.091
13.3,154.022,13.864,100.091
13.33,154.422,13.864,100.09
13.38,154.822,13.864,100.089
13.41,155.222,13.864,100.088
13.45,155.622,13.864,100.087
13.49,156.023,13.863,100.086
13.53,156.423,13.863,100.085
13.57,156.823,13.863,100.084
13.61,157.223,13.863,100.083
13.65,157.623,13.863,100.082
13.69,158.023,13.863,100.081
13.73,158.423,13.863,100.08
13.77,158.823,13.862,100.079
13.81,159.223,13.862,100.078
13.85,159.623,13.862,100.078
13.89,160.023,13.862,100.077
13.93,160.423,13.862,100.076
13.97,160.823,13.862,100.075
14.01,161.223,13.862,100.074
14.05,161.624,13.862,100.073
14.09,162.024,13.862,100.073
14.13,162.424,13.861,100.072
14.17,162.824,13.861,100.071
14.21,163.224,13.861,100.07
14.25,163.624,13.861,100.07
14.29,164.024,13.861,100.069
14.33,164.424,13.861,100.068
14.37,164.824,13.861,100.068
14.41,165.224,13.861,100.067
14.45,165.624,13.861,100.066
14.49,166.024,13.861,100.066
14.53,166.424,13.861,100.065
14.57,166.824,13.86,100.065
14.61,167.225,13.86,100.064
14.65,167.625,13.86,100.064
14.69,168.025,13.86,100.063
14.73,168.425,13.86,100.063
14.77,168.825,13.86,100.062
14.81,169.225,13.86,100.061
14.85,169.625,13.86,100.061
14.89,170.025,13.86,100.06
14.93,170.425,13.86,100.06
14.97,170.825,13.86,100.059
15.01,171.225,13.86,100.058
15.05,171.625,13.859,100.057
15.09,172.025,13.859,100.057
15.13,172.425,13.859,100.056
15.17,172.826,13.859,100.055
15.21,173.226,13.859,100.055
15.25,173.626,13.859,100.054
15.29,174.026,13.859,100.053
15.33,174.426,13.859,100.053
15.37,174.826,13.859,100.052
15.41,175.226,13.859,100.051
15.45,175.626,13.858,100.05
15.49,176.026,13.858,100.05
15.53,176.426,13.858,100.049
15.58,176.826,13.858,100.048
15.62,177.226,13.858,100.048
15.65,177.626,13.858,100.047
15.7,178.026,13.858,100.046
15.73,178.427,13.858,100.046
15.78,178.827,13.858,100.045
15.82,179.227,13.858,100.044
15.85,179.627,13.858,100.043
15.9,180.027,13.857,100.043
15.93,180.427,13.857,100.042
15.98,180.827,13.857,100.041
16.02,181.227,13.857,100.04
16.05,181.627,13.857,100.039
16.1,182.027,13.857,100.039
16.13,182.427,13.857,100.038
16.18,182.827,13.857,100.037
16.22,183.227,13.856,100.036
16.25,183.627,13.856,100.035
16.3,184.028,13.856,100.035
16.33,184.428,13.856,100.034
16.37,184.828,13.856,100.033
16.41,185.228,13.856,100.032
16.45,185.628,13.856,100.031
16.5,186.028,13.856,100.031
16.53,186.428,13.856,100.03
16.58,186.828,13.856,100.029
16.62,187.228,13.855,100.028
16.65,187.628,13.855,100.027
16.7,188.028,13.855,100.026
16.73,188.428,13.855,100.025
16.78,188.828,13.855,100.024
16.81,189.228,13.855,100.023
16.85,189.629,13.855,100.022
16.89,190.029,13.854,100.021
16.93,190.429,13.854,100.02
16.97,190.829,13.854,100.019
17.01,191.229,13.854,100.018
17.05,191.629,13.854,100.017
17.09,192.029,13.854,100.016
17.13,192.429,13.854,100.015
17.18,192.829,13.853,100.014
17.22,193.229,13.853,100.013
17.26,193.629,13.853,100.012
17.29,194.029,13.853,100.011
17.33,194.429,13.853,100.01
17.37,194.829,13.853,100.009
17.41,195.23,13.853,100.008
17.45,195.63,13.853,100.007
17.49,196.03,13.852,100.007
17.53,196.43,13.852,100.006
17.57,196.83,13.852,100.005
17.61,197.23,13.852,100.004
17.65,197.63,13.852,100.003
17.7,198.03,13.852,100.002
17.74,198.43,13.852,100
17.78,198.83,13.851,99.999
17.82,199.23,13.851,99.998
17.86,199.63,13.851,99.997
17.9,200.03,13.851,99.996
17.94,200.43,13.851,99.995
17.98,200.831,13.851,99.994
18.02,201.231,13.851,99.993
18.06,201.631,13.85,99.992
18.1,202.031,13.85,99.991
18.14,202.431,13.85,99.99
18.18,202.831,13.85,99.989
18.22,203.231,13.85,99.988
18.26,203.631,13.85,99.986
18.3,204.031,13.849,99.985
18.34,204.431,13.849,99.984
18.38,204.831,13.849,99.983
18.42,205.231,13.849,99.982
18.46,205.631,13.849,99.98
18.5,206.031,13.849,99.979
18.54,206.432,13.848,99.978
18.58,206.832,13.848,99.977
18.62,207.232,13.848,99.975
18.66,207.632,13.848,99.974
18.7,208.032,13.848,99.973
18.74,208.432,13.848,99.972
18.78,208.832,13.847,99.971
18.82,209.232,13.847,99.97
18.86,209.632,13.847,99.968
18.9,210.032,13.847,99.967
18.94,210.432,13.847,99.966
18.98,210.832,13.847,99.964
19.02,211.232,13.846,99.963
19.06,211.632,13.846,99.962
19.1,212.033,13.846,99.961
19.14,212.433,13.846,99.96
19.18,212.833,13.846,99.958
19.22,213.233,13.846,99.957
19.26,213.633,13.845,99.956
19.3,214.033,13.845,99.955
19.34,214.433,13.845,99.953
19.38,214.833,13.845,99.952
19.42,215.233,13.845,99.951
19.46,215.633,13.844,99.949
19.5,216.033,13.844,99.948
19.54,216.433,13.844,99.947
19.58,216.833,13.844,99.946
19.62,217.233,13.844,99.944
19.66,217.634,13.844,99.943
19.7,218.034,13.843,99.942
19.74,218.434,13.843,99.94
19.78,218.834,13.843,99.939
19.82,219.234,13.843,99.938
19.86,219.634,13.843,99.936
19.9,220.034,13.843,99.935
19.94,220.434,13.842,99.934
19.98,220.834,13.842,99.933
20.02,221.234,13.842,99.931
20.06,221.634,13.842,99.93
20.1,222.034,13.842,99.929
20.14,222.434,13.841,99.927
20.18,222.834,13.841,99.926
20.22,223.235,13.841,99.925
20.26,223.635,13.841,99.923
20.3,224.035,13.841,99.922
20.34,224.435,13.84,99.92
20.38,224.835,13.84,99.919
20.42,225.235,13.84,99.918
20.46,225.635,13.84,99.916
20.5,226.035,13.84,99.915
20.54,226.435,13.839,99.913
20.58,226.835,13.839,99.912
20.62,227.235,13.839,99.911
20.66,227.635,13.839,99.909
20.7,228.035,13.839,99.908
20.74,228.435,13.838,99.906
20.78,228.836,13.838,99.905
20.82,229.236,13.838,99.903
20.86,229.636,13.838,99.902
20.9,230.036,13.838,99.901
20.94,230.436,13.838,99.899
20.98,230.836,13.837,99.898
21.02,231.236,13.837,99.896
21.06,231.636,13.837,99.895
21.1,232.036,13.837,99.893
21.14,232.436,13.836,99.892
21.18,232.836,13.836,99.89
21.22,233.236,13.836,99.889
21.26,233.636,13.836,99.887
21.3,234.036,13.836,99.886
21.34,234.437,13.835,99.885
21.38,234.837,13.835,99.883
21.42,235.237,13.835,99.882
21.46,235.637,13.835,99.88
21.5,236.037,13.835,99.879
21.54,236.437,13.835,99.878
21.58,236.837,13.834,99.876
21.62,237.237,13.834,99.875
21.66,237.637,13.834,99.873
21.69,238.037,13.834,99.872
21.73,238.437,13.833,99.87
21.78,238.837,13.833,99.868
21.82,239.237,13.833,99.867
21.86,239.637,13.833,99.865
21.89,240.038,13.833,99.864
21.93,240.438,13.832,99.862
21.98,240.838,13.832,99.861
22.01,241.238,13.832,99.86
22.05,241.638,13.832,99.858
22.09,242.038,13.832,99.857
22.13,242.438,13.831,99.855
22.17,242.838,13.831,99.853
22.21,243.238,13.831,99.852
22.25,243.638,13.831,99.851
22.29,244.038,13.831,99.849
22.33,244.438,13.83,99.847
22.37,244.838,13.83,99.846
22.41,245.238,13.83,99.844
22.45,245.639,13.83,99.843
22.49,246.039,13.83,99.841
22.53,246.439,13.829,99.84
22.57,246.839,13.829,99.838
22.61,247.239,13.829,99.837
22.65,247.639,13.829,99.835
22.69,248.039,13.828,99.834
22.73,248.439,13.828,99.832
22.77,248.839,13.828,99.831
22.81,249.239,13.828,99.829
22.85,249.639,13.828,99.828
22.89,250.039,13.827,99.826
22.93,250.439,13.827,99.825
22.98,250.839,13.827,99.823
23.02,251.24,13.827,99.822
23.06,251.64,13.827,99.82
23.1,252.04,13.826,99.819
23.14,252.44,13.826,99.817
23.18,252.84,13.826,99.816
23.22,253.24,13.826,99.814
23.26,253.64,13.826,99.813
23.3,254.04,13.825,99.811
23.34,254.44,13.825,99.809
23.38,254.84,13.825,99.808
23.42,255.24,13.825,99.806
23.46,255.64,13.824,99.805
23.5,256.04,13.824,99.804
23.54,256.44,13.824,99.803
23.58,256.841,13.824,99.801
23.62,257.241,13.824,99.8
23.66,257.641,13.824,99.798
23.7,258.041,13.823,99.797
23.74,258.441,13.823,99.796
23.78,258.841,13.823,99.794
23.82,259.241,13.823,99.793
23.86,259.641,13.823,99.791
23.9,260.041,13.822,99.79
23.94,260.441,13.822,99.788
23.98,260.841,13.822,99.787
24.02,261.241,13.822,99.785
24.06,261.641,13.822,99.784
24.1,262.041,13.821,99.782
24.14,262.442,13.821,99.781
24.18,262.842,13.821,99.779
24.22,263.242,13.821,99.778
24.26,263.642,13.82,99.776
24.3,264.042,13.82,99.774
24.34,264.442,13.82,99.773
24.38,264.842,13.82,99.771
24.42,265.242,13.82,99.77
24.46,265.642,13.819,99.768
24.5,266.042,13.819,99.767
24.54,266.442,13.819,99.765
24.58,266.842,13.819,99.764
24.62,267.242,13.819,99.762
24.66,267.642,13.818,99.761
24.7,268.043,13.818,99.759
24.74,268.443,13.818,99.758
24.78,268.843,13.818,99.756
24.82,269.243,13.817,99.755
24.86,269.643,13.817,99.753
24.9,270.043,13.817,99.751
24.94,270.443,13.817,99.75
24.98,270.843,13.817,99.748
25.02,271.243,13.816,99.747
25.06,271.643,13.816,99.745
25.1,272.043,13.816,99.744
25.14,272.443,13.816,99.742
25.18,272.843,13.816,99.741
25.22,273.243,13.815,99.739
25.26,273.644,13.815,99.738
25.3,274.044,13.815,99.736
25.34,274.444,13.815,99.734
25.38,274.844,13.814,99.733
25.42,275.244,13.814,99.731
25.46,275.644,13.814,99.73
25.5,276.044,13.814,99.728
25.54,276.444,13.814,99.726
25.58,276.844,13.813,99.725
25.63,277.244,13.813,99.723
25.67,277.644,13.813,99.722
25.71,278.044,13.813,99.72
25.74,278.444,13.813,99.719
25.78,278.844,13.812,99.717
25.82,279.245,13.812,99.716
25.86,279.645,13.812,99.714
25.9,280.045,13.812,99.713
25.94,280.445,13.811,99.711
25.98,280.845,13.811,99.709
26.02,281.245,13.811,99.708
26.07,281.645,13.811,99.706
26.11,282.045,13.811,99.704
26.14,282.445,13.81,99.703
26.18,282.845,13.81,99.701
26.23,283.245,13.81,99.7
26.27,283.645,13.81,99.698
26.31,284.045,13.81,99.697
26.34,284.445,13.809,99.695
26.38,284.846,13.809,99.694
26.43,285.246,13.809,99.692
26.47,285.646,13.809,99.691
26.51,286.046,13.808,99.689
26.54,286.446,13.808,99.687
26.58,286.846,13.808,99.686
26.63,287.246,13.808,99.684
26.67,287.646,13.808,99.683
26.71,288.046,13.807,99.681
26.74,288.446,13.807,99.679
26.78,288.846,13.807,99.678
26.83,289.246,13.807,99.676
26.87,289.646,13.806,99.675
26.91,290.046,13.806,99.673
26.94,290.447,13.806,99.671
26.99,290.847,13.806,99.67
27.03,291.247,13.806,99.668
27.07,291.647,13.805,99.667
27.11,292.047,13.805,99.665
27.15,292.447,13.805,99.663
27.19,292.847,13.805,99.662
27.23,293.247,13.804,99.66
27.27,293.647,13.804,99.66
27.31,294.047,13.804,99.659
27.35,294.447,13.804,99.658
27.39,294.847,13.804,99.656
27.43,295.247,13.804,99.655
27.47,295.647,13.803,99.653
27.51,296.048,13.803,99.652
27.55,296.448,13.803,99.65
27.59,296.848,13.803,99.648
27.63,297.248,13.803,99.647
27.67,297.648,13.802,99.645
27.71,298.048,13.802,99.643
27.74,298.448,13.802,99.642
27.78,298.848,13.802,99.64
27.83,299.248,13.801,99.639
27.87,299.648,13.801,99.637
27.91,300.048,13.801,99.635
27.94,300.448,13.801,99.634
27.98,300.848,13.801,99.632
28.02,301.248,13.8,99.63
28.06,301.649,13.8,99.629
28.1,302.049,13.8,99.627
28.14,302.449,13.8,99.625
28.18,302.849,13.799,99.624
28.23,303.249,13.799,99.622
28.27,303.649,13.799,99.62
28.31,304.049,13.799,99.618
28.35,304.449,13.798,99.617
28.39,304.849,13.798,99.615
28.43,305.249,13.798,99.613
28.47,305.649,13.798,99.612
28.51,306.049,13.797,99.61
28.55,306.449,13.797,99.608
28.59,306.849,13.797,99.607
28.63,307.25,13.797,99.605
28.67,307.65,13.797,99.603
28.71,308.05,13.796,99.601
28.75,308.45,13.796,99.6
28.79,308.85,13.796,99.598
28.83,309.25,13.796,99.596
28.87,309.65,13.795,99.595
28.91,310.05,13.795,99.593
28.95,310.45,13.795,99.591
28.99,310.85,13.795,99.589
29.03,311.25,13.794,99.588
29.07,311.65,13.794,99.586
29.11,312.05,13.794,99.584
29.14,312.45,13.794,99.582
29.18,312.851,13.793,99.581
29.23,313.251,13.793,99.579
29.27,313.651,13.793,99.577
29.31,314.051,13.793,99.575
29.34,314.451,13.792,99.574
29.38,314.851,13.792,99.572
29.43,315.251,13.792,99.57
29.47,315.651,13.792,99.568
29.51,316.051,13.791,99.566
29.54,316.451,13.791,99.565
29.58,316.851,13.791,99.563
29.63,317.251,13.791,99.561
29.67,317.651,13.79,99.56
29.71,318.051,13.79,99.558
29.74,318.452,13.79,99.556
29.78,318.852,13.79,99.554
29.83,319.252,13.79,99.553
29.87,319.652,13.789,99.551
29.91,320.052,13.789,99.549
29.95,320.452,13.789,99.547
29.99,320.852,13.788,99.545
30.03,321.252,13.788,99.544
30.07,321.652,13.788,99.542
30.11,322.052,13.788,99.54
30.14,322.452,13.788,99.539
30.18,322.852,13.787,99.537
30.23,323.252,13.787,99.535
30.27,323.652,13.787,99.533
30.31,324.053,13.787,99.531
30.35,324.453,13.786,99.53
30.39,324.853,13.786,99.528
30.43,325.253,13.786,99.526
30.47,325.653,13.786,99.524
30.51,326.053,13.785,99.523
30.55,326.453,13.785,99.521
30.59,326.853,13.785,99.519
30.63,327.253,13.785,99.517
30.67,327.653,13.784,99.515
30.71,328.053,13.784,99.513
30.75,328.453,13.784,99.512
30.79,328.853,13.784,99.51
30.83,329.253,13.783,99.508
30.87,329.654,13.783,99.506
30.91,330.054,13.783,99.505
30.94,330.454,13.783,99.503
30.98,330.854,13.782,99.501
31.03,331.254,13.782,99.499
31.07,331.654,13.782,99.498
31.11,332.054,13.782,99.496
31.14,332.454,13.781,99.494
31.19,332.854,13.781,99.492
31.23,333.254,13.781,99.49
31.27,333.654,13.781,99.489
31.31,334.054,13.78,99.487
31.35,334.454,13.78,99.486
31.39,334.854,13.78,99.484
31.43,335.255,13.78,99.482
31.47,335.655,13.78,99.481
31.51,336.055,13.779,99.479
31.55,336.455,13.779,99.477
31.59,336.855,13.779,99.476
31.63,337.255,13.779,99.474
31.67,337.655,13.778,99.473
31.71,338.055,13.778,99.471
31.75,338.455,13.778,99.469
31.79,338.855,13.778,99.467
31.83,339.255,13.777,99.465
31.87,339.655,13.777,99.464
31.91,340.055,13.777,99.462
31.95,340.455,13.777,99.46
31.99,340.856,13.776,99.458
32.03,341.256,13.776,99.456
32.07,341.656,13.776,99.455
32.11,342.056,13.776,99.453
32.15,342.456,13.775,99.451
32.19,342.856,13.775,99.449
32.23,343.256,13.775,99.447
32.27,343.656,13.775,99.445
32.31,344.056,13.774,99.444
32.34,344.456,13.774,99.442
32.38,344.856,13.774,99.44
32.43,345.256,13.774,99.438
32.47,345.656,13.773,99.436
32.51,346.056,13.773,99.435
32.54,346.457,13.773,99.433
32.59,346.857,13.773,99.431
32.63,347.257,13.772,99.429
32.67,347.657,13.772,99.427
32.71,348.057,13.772,99.425
32.75,348.457,13.772,99.423
32.79,348.857,13.771,99.422
32.83,349.257,13.771,99.42
32.87,349.657,13.771,99.418
32.91,350.057,13.771,99.416
32.95,350.457,13.77,99.414
32.99,350.857,13.77,99.412
33.03,351.257,13.77,99.41
33.07,351.657,13.77,99.408
33.11,352.058,13.769,99.407
33.15,352.458,13.769,99.405
33.19,352.858,13.769,99.403
33.23,353.258,13.769,99.401
33.27,353.658,13.768,99.399
33.31,354.058,13.768,99.397
33.35,354.458,13.768,99.396
33.39,354.858,13.768,99.394
33.43,355.258,13.767,99.392
33.47,355.658,13.767,99.39
33.51,356.058,13.767,99.388
33.55,356.458,13.767,99.387
33.59,356.858,13.766,99.385
33.63,357.258,13.766,99.383
33.67,357.659,13.766,99.381
33.71,358.059,13.766,99.38
33.75,358.459,13.765,99.378
33.79,358.859,13.765,99.376
33.83,359.259,13.765,99.374
33.87,359.659,13.764,99.372
33.91,360.059,13.764,99.37
33.95,360.459,13.764,99.368
33.99,360.859,13.764,99.366
34.03,361.259,13.763,99.364
34.07,361.659,13.763,99.362
34.11,362.059,13.763,99.36
34.15,362.459,13.763,99.359
34.19,362.859,13.762,99.357
34.23,363.26,13.762,99.355
34.27,363.66,13.762,99.353
34.31,364.06,13.762,99.351
34.35,364.46,13.761,99.349
34.39,364.86,13.761,99.347
34.43,365.26,13.761,99.345
34.47,365.66,13.761,99.344
34.51,366.06,13.76,99.341
34.55,366.46,13.76,99.339
34.59,366.86,13.76,99.337
34.63,367.26,13.759,99.336
34.67,367.66,13.759,99.334
34.71,368.06,13.759,99.332
34.75,368.46,13.759,99.33
34.79,368.861,13.758,99.328
34.83,369.261,13.758,99.326
34.87,369.661,13.758,99.324
34.91,370.061,13.758,99.322
34.95,370.461,13.757,99.32
34.99,370.861,13.757,99.318
35.03,371.261,13.757,99.316
35.07,371.661,13.756,99.314
35.11,372.061,13.756,99.312
35.15,372.461,13.756,99.31
35.19,372.861,13.756,99.308
35.23,373.261,13.755,99.306
35.27,373.661,13.755,99.304
35.31,374.061,13.755,99.302
35.35,374.462,13.755,99.3
35.39,374.862,13.754,99.298
35.43,375.262,13.754,99.296
35.47,375.662,13.754,99.294
35.51,376.062,13.753,99.292
35.55,376.462,13.753,99.29
35.59,376.862,13.753,99.288
35.63,377.262,13.753,99.286
35.67,377.662,13.752,99.284
35.71,378.062,13.752,99.282
35.75,378.462,13.752,99.28
35.79,378.862,13.751,99.278
35.83,379.262,13.751,99.275
35.87,379.662,13.751,99.274
35.91,380.063,13.751,99.272
35.95,380.463,13.75,99.269
35.99,380.863,13.75,99.267
36.03,381.263,13.75,99.265
36.07,381.663,13.749,99.263
36.11,382.063,13.749,99.261
36.15,382.463,13.749,99.259
36.19,382.863,13.749,99.257
36.23,383.263,13.748,99.255
36.27,383.663,13.748,99.253
36.31,384.063,13.748,99.251
36.35,384.463,13.747,99.249
36.39,384.863,13.747,99.246
36.43,385.263,13.747,99.244
36.47,385.664,13.747,99.242
36.51,386.064,13.746,99.24
36.55,386.464,13.746,99.238
36.59,386.864,13.746,99.236
36.63,387.264,13.745,99.234
36.67,387.664,13.745,99.231
36.71,388.064,13.745,99.229
36.75,388.464,13.744,99.227
36.79,388.864,13.744,99.225
36.83,389.264,13.744,99.223
36.87,389.664,13.743,99.22
36.91,390.064,13.743,99.218
36.95,390.464,13.743,99.216
36.99,390.864,13.743,99.213
37.03,391.265,13.742,99.211
37.07,391.665,13.742,99.208
37.11,392.065,13.742,99.206
37.15,392.465,13.741,99.203
37.19,392.865,13.741,99.201
37.23,393.265,13.74,99.198
37.27,393.665,13.74,99.196
37.31,394.065,13.74,99.193
37.36,394.465,13.739,99.191
37.4,394.865,13.739,99.188
37.44,395.265,13.739,99.186
37.48,395.665,13.738,99.183
37.52,396.065,13.738,99.181
37.56,396.465,13.738,99.178
37.59,396.866,13.737,99.175
37.63,397.266,13.737,99.173
37.65,397.666,13.737,99.172
37.68,398.066,13.737,99.17
37.7,398.466,13.736,99.168
37.73,398.866,13.736,99.166
37.76,399.266,13.736,99.164
37.8,399.666,13.735,99.161
37.85,400.066,13.735,99.157
37.89,400.466,13.734,99.154
37.94,400.866,13.734,99.151
37.99,401.266,13.733,99.147
38.03,401.666,13.733,99.144
38.08,402.066,13.732,99.141
38.12,402.467,13.732,99.138
38.16,402.867,13.732,99.135
38.21,403.267,13.731,99.132
38.25,403.667,13.731,99.129
38.29,404.067,13.73,99.125
38.33,404.467,13.73,99.123
38.37,404.867,13.73,99.119
38.41,405.267,13.729,99.116
38.45,405.667,13.729,99.113
38.49,406.067,13.728,99.109
38.54,406.467,13.728,99.106
38.58,406.867,13.727,99.103
38.62,407.267,13.727,99.099
38.66,407.667,13.726,99.096
38.7,408.068,13.726,99.092
38.74,408.468,13.725,99.089
38.78,408.868,13.725,99.085
38.82,409.268,13.724,99.082
38.86,409.668,13.724,99.078
38.91,410.068,13.723,99.074
38.95,410.468,13.723,99.071
38.99,410.868,13.722,99.067
39.03,411.268,13.722,99.063
39.07,411.668,13.721,99.059
39.11,412.068,13.721,99.055
39.15,412.468,13.72,99.051
39.19,412.868,13.719,99.047
39.23,413.268,13.719,99.043
39.27,413.669,13.718,99.039
39.31,414.069,13.718,99.034
39.35,414.469,13.717,99.03
39.39,414.869,13.717,99.026
39.43,415.269,13.716,99.021
39.47,415.669,13.715,99.017
39.51,416.069,13.715,99.012
39.55,416.469,13.714,99.007
39.59,416.869,13.713,99.003
39.63,417.269,13.713,98.998
39.67,417.669,13.712,98.993
39.71,418.069,13.711,98.988
39.75,418.469,13.711,98.982
39.79,418.869,13.71,98.977
39.83,419.27,13.709,98.972
39.87,419.67,13.708,98.967
39.91,420.07,13.708,98.961
39.95,420.47,13.707,98.956
39.99,420.87,13.706,98.95
40.03,421.27,13.705,98.944
40.07,421.67,13.704,98.938
40.11,422.07,13.704,98.932
40.15,422.47,13.703,98.926
40.19,422.87,13.702,98.92
40.23,423.27,13.701,98.913
40.27,423.67,13.7,98.907
40.31,424.07,13.699,98.9
40.35,424.47,13.698,98.894
40.39,424.871,13.697,98.887
40.44,425.271,13.696,98.88
40.47,425.671,13.695,98.874
40.51,426.071,13.694,98.867
40.55,426.471,13.694,98.86
40.59,426.871,13.693,98.853
40.63,427.271,13.692,98.846
40.67,427.671,13.691,98.838
40.71,428.071,13.69,98.831
40.75,428.471,13.688,98.823
40.79,428.871,13.687,98.815
40.83,429.271,13.686,98.807
40.87,429.671,13.685,98.799
40.91,430.071,13.684,98.791
40.95,430.472,13.683,98.783
40.99,430.872,13.682,98.774
41.03,431.272,13.681,98.766
41.07,431.672,13.679,98.758
41.11,432.072,13.678,98.749
41.15,432.472,13.677,98.74
41.19,432.872,13.676,98.731
41.23,433.272,13.674,98.722
41.27,433.672,13.673,98.712
41.31,434.072,13.672,98.703
41.35,434.472,13.67,98.693
41.39,434.872,13.669,98.683
41.43,435.272,13.668,98.672
41.47,435.672,13.666,98.662
41.51,436.073,13.665,98.651
41.55,436.473,13.663,98.641
41.59,436.873,13.662,98.63
41.63,437.273,13.66,98.618
41.67,437.673,13.659,98.607
41.71,438.073,13.657,98.596
41.75,438.473,13.655,98.584
41.79,438.873,13.654,98.572
41.83,439.273,13.652,98.56
41.87,439.673,13.65,98.547
41.91,440.073,13.649,98.535
41.95,440.473,13.647,98.522
41.99,440.873,13.645,98.509
42.03,441.273,13.643,98.496
42.07,441.674,13.641,98.482
42.11,442.074,13.639,98.468
42.15,442.474,13.637,98.454
42.19,442.874,13.635,98.439
42.23,443.274,13.633,98.424
42.27,443.674,13.631,98.409
42.31,444.074,13.629,98.394
42.35,444.474,13.627,98.378
42.39,444.874,13.625,98.362
42.43,445.274,13.622,98.346
42.47,445.674,13.62,98.329
42.51,446.074,13.618,98.312
42.55,446.474,13.615,98.294
42.59,446.874,13.613,98.276
42.63,447.275,13.61,98.258
42.67,447.675,13.608,98.239
42.71,448.075,13.605,98.219
42.75,448.475,13.602,98.2
42.79,448.875,13.599,98.18
42.83,449.275,13.597,98.159
42.87,449.675,13.594,98.138
42.91,450.075,13.591,98.117
42.95,450.475,13.587,98.093
42.99,450.875,13.584,98.07
43.03,451.275,13.581,98.046
43.07,451.675,13.578,98.023
43.11,452.075,13.574,98
43.15,452.475,13.571,97.976
43.19,452.876,13.568,97.951
43.22,453.276,13.564,97.926
43.26,453.676,13.56,97.899
43.3,454.076,13.557,97.871
43.34,454.476,13.553,97.843
43.38,454.876,13.549,97.813
43.42,455.276,13.544,97.783
43.46,455.676,13.54,97.752
43.51,456.076,13.535,97.718
43.55,456.476,13.53,97.677
43.6,456.876,13.524,97.636
43.64,457.276,13.519,97.596
43.68,457.676,13.513,97.556
43.72,458.076,13.508,97.518
43.76,458.477,13.502,97.476
43.79,458.877,13.496,97.433
43.83,459.277,13.49,97.389
43.87,459.677,13.484,97.344
43.91,460.077,13.477,97.296
43.95,460.477,13.47,97.244
43.99,460.877,13.462,97.189
44.03,461.277,13.454,97.133
44.07,461.677,13.447,97.076
44.11,462.077,13.439,97.019
44.15,462.477,13.431,96.961
44.19,462.877,13.422,96.901
44.23,463.277,13.414,96.842
44.27,463.677,13.405,96.779
44.31,464.078,13.397,96.717
44.35,464.478,13.388,96.654
44.39,464.878,13.379,96.586
44.43,465.278,13.37,96.521
44.46,465.678,13.36,96.452
44.51,466.078,13.35,96.38
44.54,466.478,13.34,96.311
44.58,466.878,13.33,96.237
44.62,467.278,13.32,96.161
44.66,467.678,13.309,96.083
44.7,468.078,13.299,96.009
44.74,468.478,13.288,95.931
44.78,468.878,13.277,95.852
44.82,469.278,13.266,95.771
44.86,469.679,13.254,95.688
44.9,470.079,13.243,95.606
44.94,470.479,13.231,95.521
44.98,470.879,13.219,95.434
45.02,471.279,13.206,95.343
45.06,471.679,13.193,95.248
45.1,472.079,13.18,95.149
45.14,472.479,13.166,95.05
45.18,472.879,13.152,94.949
45.22,473.279,13.136,94.837
45.26,473.679,13.121,94.727
45.3,474.079,13.105,94.609
45.34,474.479,13.088,94.488
45.39,474.879,13.07,94.355
45.43,475.28,13.051,94.218
45.46,475.68,13.032,94.082
45.51,476.08,13.012,93.936
45.55,476.48,12.99,93.784
45.59,476.88,12.968,93.624
45.64,477.28,12.942,93.432
45.67,477.68,12.924,93.304
45.71,478.08,12.905,93.171
45.74,478.48,12.886,93.031
45.78,478.88,12.864,92.87
45.82,479.28,12.84,92.699
45.86,479.68,12.815,92.515
45.9,480.08,12.787,92.317
45.94,480.48,12.76,92.117
45.98,480.881,12.728,91.892
46.02,481.281,12.697,91.664
46.06,481.681,12.666,91.442
46.11,482.081,12.633,91.206
46.15,482.481,12.602,90.98
46.19,482.881,12.57,90.747
46.22,483.281,12.539,90.522
46.26,483.681,12.505,90.276
46.3,484.081,12.468,90.009
46.34,484.481,12.433,89.756
46.37,484.881,12.398,89.504
46.41,485.281,12.359,89.223
46.45,485.681,12.32,88.941
46.49,486.081,12.277,88.635
46.53,486.482,12.234,88.326
46.57,486.882,12.191,88.013
46.61,487.282,12.145,87.678
46.65,487.682,12.098,87.342
46.69,488.082,12.05,86.992
46.73,488.482,12.001,86.64
46.77,488.882,11.949,86.266
46.81,489.282,11.897,85.893
46.85,489.682,11.842,85.494
46.89,490.082,11.786,85.092
46.93,490.482,11.728,84.672
46.97,490.882,11.669,84.241
47.01,491.282,11.603,83.766
47.06,491.682,11.54,83.312
47.09,492.083,11.476,82.852
47.14,492.483,11.41,82.374
47.18,492.883,11.339,81.859
47.22,493.283,11.267,81.343
47.26,493.683,11.198,80.847
47.3,494.083,11.118,80.265
47.34,494.483,11.038,79.689
47.38,494.883,10.96,79.127
47.42,495.283,10.878,78.535
47.46,495.683,10.795,77.933
47.5,496.083,10.71,77.322
47.54,496.483,10.624,76.699
47.58,496.883,10.535,76.054
47.62,497.283,10.442,75.388
47.66,497.684,10.347,74.696
47.7,498.084,10.242,73.942
47.74,498.484,10.138,73.19
47.78,498.884,10.029,72.403
47.82,499.284,9.915,71.581
47.86,499.684,9.811,70.83
47.9,500.084,9.695,69.992
47.94,500.484,9.576,69.134
47.98,500.884,9.46,68.299
48.02,501.284,9.339,67.424
48.06,501.684,9.218,66.548
48.1,502.084,9.09,65.624
48.14,502.484,8.963,64.708
48.18,502.884,8.83,63.747
48.22,503.285,8.701,62.813
48.26,503.685,8.554,61.752
48.3,504.085,8.417,60.769
48.34,504.485,8.281,59.781
48.39,504.885,8.129,58.685
48.43,505.285,7.982,57.625
48.46,505.685,7.842,56.616
48.51,506.085,7.682,55.457
48.55,506.485,7.532,54.375
48.59,506.885,7.372,53.224
48.63,507.285,7.209,52.043
48.67,507.685,7.036,50.8
48.71,508.085,6.865,49.563
48.75,508.485,6.694,48.328
48.8,508.886,6.508,46.983
48.84,509.286,6.316,45.598
48.89,509.686,6.126,44.227
48.93,510.086,5.953,42.977
48.96,510.486,5.778,41.715
49,510.886,5.615,40.54
49.04,511.286,5.443,39.297
49.07,511.686,5.276,38.09
49.11,512.086,5.106,36.863
49.15,512.486,4.937,35.644
49.19,512.886,4.759,34.36
49.22,513.286,4.581,33.069
49.26,513.686,4.394,31.723
49.3,514.086,4.205,30.357
49.34,514.487,4.018,29.008
49.38,514.887,3.831,27.659
49.42,515.287,3.65,26.35
49.46,515.687,3.469,25.046
49.5,516.087,3.289,23.742
49.54,516.487,3.112,22.468
49.58,516.887,2.936,21.195
49.62,517.287,2.762,19.94
49.66,517.687,2.599,18.763
49.7,518.087,2.432,17.556
49.74,518.487,2.268,16.376
49.78,518.887,2.108,15.215
49.82,519.287,1.953,14.101
49.86,519.687,1.805,13.034
49.9,520.088,1.658,11.971
49.94,520.488,1.524,11.002
49.98,520.888,1.39,10.032
50.02,521.288,1.272,9.183
50.06,521.688,1.16,8.376
50.1,522.088,1.053,7.604
50.14,522.488,0.9530000,6.883
50.18,522.888,0.8620000,6.225
50.22,523.288,0.7780000,5.619
50.26,523.688,0.7020000,5.07
50.3,524.088,0.6340000,4.574
50.34,524.488,0.5730000,4.133
50.38,524.888,0.5190000,3.747
50.42,525.288,0.4730000,3.412
50.46,525.689,0.4330000,3.126
50.5,526.089,0.3990000,2.884
50.54,526.489,0.3730000,2.692
50.58,526.889,0.3500000,2.526
50.62,527.289,0.3320000,2.393
50.66,527.689,0.3170000,2.29
50.7,528.089,0.3060000,2.213
50.74,528.489,0.2990000,2.156
50.78,528.889,0.2930000,2.115
50.82,529.289,0.2890000,2.09
50.86,529.689,0.2870000,2.072
50.9,530.089,0.2850000,2.056
50.94,530.489,0.2830000,2.04
50.98,530.889,0.2800000,2.025
51.02,531.29,0.2790000,2.011
51.06,531.69,0.2770000,2
51.1,532.09,0.2760000,1.989
51.14,532.49,0.2740000,1.981
51.18,532.89,0.2730000,1.973
51.22,533.29,0.2720000,1.967
51.26,533.69,0.2720000,1.962
51.31,534.09,0.2710000,1.958
51.34,534.49,0.2710000,1.954
51.39,534.89,0.2700000,1.951
51.43,535.29,0.2700000,1.949
51.47,535.69,0.2700000,1.947
51.51,536.09,0.2690000,1.945
51.55,536.49,0.2690000,1.944
51.59,536.891,0.2690000,1.943
51.63,537.291,0.2690000,1.942
51.67,537.691,0.2690000,1.941
51.71,538.091,0.2690000,1.941
51.75,538.491,0.2690000,1.94
51.79,538.891,0.2690000,1.94
51.83,539.291,0.2690000,1.939
51.87,539.691,0.2690000,1.939
51.91,540.091,0.2680000,1.938
51.95,540.491,0.2680000,1.938
51.99,540.891,0.2680000,1.938
52.03,541.291,0.2680000,1.937
52.07,541.691,0.2680000,1.937
52.11,542.091,0.2680000,1.937
52.15,542.492,0.2680000,1.937
52.19,542.892,0.2680000,1.937
52.23,543.292,0.2680000,1.937
52.27,543.692,0.2680000,1.937
52.31,544.092,0.2680000,1.937
52.35,544.492,0.2680000,1.937
52.39,544.892,0.2680000,1.937
52.43,545.292,0.2680000,1.937
52.46,545.692,0.2680000,1.937
52.51,546.092,0.2680000,1.936
52.54,546.492,0.2680000,1.937
52.59,546.892,0.2680000,1.937
52.63,547.292,0.2680000,1.936
52.66,547.692,0.2680000,1.936
52.71,548.093,0.2680000,1.936
52.74,548.493,0.2680000,1.936
52.79,548.893,0.2680000,1.936
52.83,549.293,0.2680000,1.936
52.87,549.693,0.2680000,1.936
52.91,550.093,0.2680000,1.936
52.95,550.493,0.2680000,1.936
52.99,550.893,0.2680000,1.935
53.03,551.293,0.2680000,1.935
53.07,551.693,0.2680000,1.935
53.11,552.093,0.2680000,1.935
53.15,552.493,0.2680000,1.935
53.19,552.893,0.2680000,1.935
53.23,553.293,0.2680000,1.935
53.27,553.694,0.2680000,1.935
53.31,554.094,0.2680000,1.935
53.35,554.494,0.2680000,1.935
53.39,554.894,0.2680000,1.935
53.43,555.294,0.2680000,1.935
53.47,555.694,0.2680000,1.934
53.51,556.094,0.2680000,1.934
53.54,556.494,0.2680000,1.934
53.59,556.894,0.2680000,1.934
53.63,557.294,0.2680000,1.934
53.66,557.694,0.2680000,1.934
53.71,558.094,0.2680000,1.934
53.74,558.494,0.2680000,1.934
53.79,558.894,0.2680000,1.934
53.83,559.295,0.2680000,1.933
53.86,559.695,0.2680000,1.933
53.91,560.095,0.2680000,1.933
53.94,560.495,0.2680000,1.933
53.99,560.895,0.2680000,1.933
54.03,561.295,0.2680000,1.933
54.07,561.695,0.2680000,1.933
54.11,562.095,0.2680000,1.932
54.15,562.495,0.2680000,1.932
54.19,562.895,0.2680000,1.932
54.23,563.295,0.2680000,1.932
54.27,563.695,0.2680000,1.932
54.31,564.095,0.2680000,1.932
54.35,564.495,0.2680000,1.932
54.39,564.896,0.2680000,1.932
54.43,565.296,0.2680000,1.932
54.47,565.696,0.2680000,1.932
54.51,566.096,0.2680000,1.931
54.55,566.496,0.2680000,1.931
54.59,566.896,0.2670000,1.931
54.63,567.296,0.2670000,1.931
54.67,567.696,0.2670000,1.931
54.71,568.096,0.2670000,1.931
54.75,568.496,0.2670000,1.931
54.79,568.896,0.2670000,1.931
54.83,569.296,0.2670000,1.93
54.87,569.696,0.2670000,1.93
54.91,570.096,0.2670000,1.93
54.95,570.497,0.2670000,1.93
54.99,570.897,0.2670000,1.93
55.03,571.297,0.2670000,1.93
55.07,571.697,0.2670000,1.93
55.11,572.097,0.2670000,1.929
55.15,572.497,0.2670000,1.929
55.19,572.897,0.2670000,1.929
55.23,573.297,0.2670000,1.929
55.27,573.697,0.2670000,1.929
55.31,574.097,0.2670000,1.929
55.35,574.497,0.2670000,1.929
55.39,574.897,0.2670000,1.928
55.43,575.297,0.2670000,1.928
55.47,575.697,0.2670000,1.928
55.51,576.098,0.2670000,1.928
55.55,576.498,0.2670000,1.928
55.59,576.898,0.2670000,1.927
55.63,577.298,0.2670000,1.927
55.67,577.698,0.2670000,1.927
55.71,578.098,0.2670000,1.927
55.75,578.498,0.2670000,1.927
55.79,578.898,0.2670000,1.927
55.83,579.298,0.2670000,1.926
55.87,579.698,0.2670000,1.926
55.91,580.098,0.2670000,1.926
55.95,580.498,0.2670000,1.926
55.99,580.898,0.2670000,1.926
56.03,581.298,0.2670000,1.925
56.07,581.699,0.2670000,1.925
56.11,582.099,0.2670000,1.925
56.15,582.499,0.2670000,1.925
56.19,582.899,0.2670000,1.925
56.22,583.299,0.2670000,1.924
56.26,583.699,0.2670000,1.924
56.3,584.099,0.2660000,1.924
56.34,584.499,0.2660000,1.924
56.37,584.899,0.2660000,1.923
56.41,585.299,0.2660000,1.923
56.45,585.699,0.2660000,1.923
56.49,586.099,0.2660000,1.923
56.53,586.499,0.2660000,1.922
56.57,586.899,0.2660000,1.922
56.61,587.3,0.2660000,1.922
56.65,587.7,0.2660000,1.922
56.69,588.1,0.2660000,1.921
56.73,588.5,0.2660000,1.921
56.77,588.9,0.2660000,1.921
56.81,589.3,0.2660000,1.921
56.85,589.7,0.2660000,1.92
56.88,590,0.2660000,1.92