File: R/rHDPE_App/app/www/Output/TGA/Condensed_Data/Resin2_1_.csv
0.7200000,30,17.619,100.015,0.0037697
0.7900000,30.5001,17.619,100.018,0.0022148
0.8500000,31.0002,17.62,100.02,0.0043439
0.9200000,31.5003,17.62,100.021,0.0048745
0.9800000,32.0004,17.62,100.023,0.0034252
1.04,32.5004,17.621,100.024,0.0028715
1.1,33.0005,17.621,100.025,0.0018694
1.16,33.5006,17.621,100.026,0.0007911
1.21,34.0007,17.621,100.027,0.0027667
1.27,34.5008,17.621,100.028,0.0013465
1.33,35.0009,17.621,100.029,0.0017464
1.38,35.501,17.622,100.03,0.0021420
1.44,36.0011,17.622,100.031,0.0005576
1.49,36.5012,17.622,100.031,0.0027719
1.55,37.0013,17.622,100.032,0.0010026
1.6,37.5013,17.622,100.033,0.0016958
1.66,38.0014,17.622,100.034,0.0008442
1.71,38.5015,17.622,100.034,0.0013851
1.77,39.0016,17.622,100.035,0.0015281
1.82,39.5017,17.623,100.036,0.0011299
1.87,40.0018,17.623,100.036,0.0018119
1.93,40.5019,17.623,100.037,0.0011231
1.98,41.002,17.623,100.038,0.0006333
2.03,41.5021,17.623,100.038,0.0013613
2.08,42.0021,17.623,100.039,0.0009217
2.14,42.5022,17.623,100.039,0.0010656
2.19,43.0023,17.623,100.04,0.0013538
2.24,43.5024,17.623,100.041,0.0009653
2.3,44.0025,17.624,100.041,0.0014934
2.35,44.5026,17.624,100.042,0.0013458
2.4,45.0027,17.624,100.042,0.0012964
2.45,45.5028,17.624,100.043,0.0013413
2.51,46.0029,17.624,100.044,0.0014836
2.56,46.5029,17.624,100.045,0.0014805
2.61,47.003,17.624,100.045,0.0018131
2.66,47.5031,17.624,100.046,0.0011430
2.71,48.0032,17.624,100.046,0.0012366
2.77,48.5033,17.625,100.047,0.0013299
2.82,49.0034,17.625,100.048,0.0012808
2.87,49.5035,17.625,100.048,0.0010422
2.92,50.0036,17.625,100.049,0.0009464
2.97,50.5037,17.625,100.05,0.0010393
3.03,51.0038,17.625,100.05,0.0008498
3.08,51.5038,17.625,100.051,0.0008014
3.13,52.0039,17.625,100.051,0.0006119
3.18,52.504,17.625,100.052,0.0009401
3.23,53.0041,17.626,100.052,0.0009391
3.28,53.5042,17.626,100.053,0.0009383
3.33,54.0043,17.626,100.053,0.0013588
3.38,54.5044,17.626,100.054,0.0012636
3.44,55.0045,17.626,100.055,0.0013088
3.49,55.5046,17.626,100.055,0.0012604
3.54,56.0046,17.626,100.056,0.0008397
3.59,56.5047,17.626,100.056,0.0009792
3.64,57.0048,17.626,100.057,0.0011644
3.69,57.5049,17.626,100.057,0.0008381
3.74,58.005,17.626,100.058,0.0010698
3.79,58.5051,17.627,100.058,0.0011157
3.84,59.0052,17.627,100.059,0.0008366
3.89,59.5053,17.627,100.06,0.0011148
3.94,60.0054,17.627,100.06,0.0010217
3.99,60.5054,17.627,100.061,0.0012526
4.04,61.0055,17.627,100.061,0.0008344
4.09,61.5056,17.627,100.062,0.0008803
4.15,62.0057,17.627,100.062,0.0006481
4.2,62.5058,17.627,100.063,0.0006938
4.25,63.0059,17.627,100.063,0.0010171
4.3,63.506,17.628,100.064,0.0010622
4.35,64.0061,17.628,100.064,0.0010618
4.4,64.5062,17.628,100.065,0.0009692
4.45,65.0063,17.628,100.065,0.0007380
4.5,65.5063,17.628,100.066,0.0008299
4.55,66.0064,17.628,100.066,0.0009679
4.6,66.5065,17.628,100.067,0.0014748
4.65,67.0066,17.628,100.067,0.0008292
4.7,67.5067,17.628,100.068,0.0009210
4.75,68.0068,17.628,100.068,0.0009212
4.8,68.5069,17.628,100.069,0.0007366
4.85,69.007,17.628,100.069,0.0008283
4.9,69.5071,17.629,100.069,0.0011503
4.95,70.0071,17.629,100.07,0.0010120
5,70.5072,17.629,100.07,0.0010575
5.05,71.0073,17.629,100.071,0.0009191
5.1,71.5074,17.629,100.071,0.0008271
5.15,72.0075,17.629,100.072,0.0008269
5.2,72.5076,17.629,100.072,0.0008731
5.25,73.0077,17.629,100.072,0.0010569
5.3,73.5078,17.629,100.073,0.0010105
5.35,74.0079,17.629,100.073,0.0007345
5.4,74.5079,17.629,100.074,0.0006883
5.45,75.008,17.629,100.074,0.0008258
5.5,75.5081,17.629,100.075,0.0010099
5.55,76.0082,17.63,100.075,0.0006882
5.6,76.5083,17.63,100.075,0.0002753
5.65,77.0084,17.63,100.076,0.0005504
5.7,77.5085,17.63,100.076,0.0005043
5.75,78.0086,17.63,100.076,0.0007337
5.8,78.5087,17.63,100.077,0.0005043
5.85,79.0088,17.63,100.077,0.0005960
5.9,79.5088,17.63,100.077,0.0006873
5.95,80.0089,17.63,100.078,0.0006873
6,80.509,17.63,100.078,0.0007330
6.05,81.0091,17.63,100.078,0.0009160
6.1,81.5092,17.63,100.079,0.0006414
6.15,82.0093,17.63,100.079,0.0007785
6.2,82.5094,17.63,100.079,0.0008240
6.25,83.0095,17.63,100.08,0.0010067
6.3,83.5096,17.63,100.08,0.0008697
6.35,84.0096,17.63,100.08,0.0003206
6.4,84.5097,17.63,100.081,-0.0000458
6.45,85.0098,17.631,100.081,0.0001832
6.5,85.5099,17.631,100.081,0.0007781
6.55,86.01,17.631,100.081,0.0004580
6.6,86.5101,17.631,100.081,0.0004121
6.65,87.0102,17.631,100.082,0.0001832
6.7,87.5103,17.631,100.082,0.0004121
6.75,88.0104,17.631,100.082,0.0004579
6.8,88.5104,17.631,100.082,0.0005037
6.85,89.0105,17.631,100.083,0.0002289
6.9,89.5106,17.631,100.083,0.0001832
6.95,90.0107,17.631,100.083,0.0003664
7.01,90.5108,17.631,100.083,0.0005038
7.06,91.0109,17.631,100.083,0.0006414
7.11,91.511,17.631,100.084,0.0003664
7.16,92.0111,17.631,100.084,0.0004582
7.21,92.5112,17.631,100.084,0.0003665
7.26,93.0113,17.631,100.084,0.0005497
7.31,93.5113,17.631,100.084,0.0003663
7.36,94.0114,17.631,100.084,0.0002747
7.41,94.5115,17.631,100.085,0.0001374
7.46,95.0116,17.631,100.085,0.0003663
7.51,95.5117,17.631,100.085,0.0002290
7.56,96.0118,17.631,100.085,0.0003664
7.61,96.5119,17.631,100.085,0.0001374
7.66,97.012,17.631,100.085,0.0002290
7.71,97.5121,17.631,100.085,0.0004578
7.76,98.0121,17.631,100.085,0.0001373
7.81,98.5122,17.631,100.085,0.0000915
7.86,99.0123,17.631,100.085,0.0002746
7.91,99.5124,17.631,100.085,0.0000000
7.96,100.013,17.631,100.085,0.0001373
8.01,100.513,17.631,100.085,0.0000000
8.06,101.013,17.631,100.085,0.0001831
8.11,101.513,17.631,100.085,0.0000915
8.16,102.013,17.631,100.085,0.0000915
8.21,102.513,17.631,100.085,0.0002747
8.26,103.013,17.631,100.085,0.0004120
8.31,103.513,17.631,100.086,0.0003662
8.36,104.013,17.631,100.086,0.0001373
8.41,104.513,17.631,100.086,0.0000916
8.46,105.013,17.631,100.086,0.0000000
8.51,105.513,17.631,100.086,-0.0000458
8.56,106.014,17.631,100.086,-0.0001374
8.61,106.514,17.631,100.086,-0.0001374
8.66,107.014,17.631,100.086,-0.0000458
8.71,107.514,17.631,100.086,0.0000000
8.76,108.014,17.631,100.086,0.0000000
8.81,108.514,17.631,100.086,-0.0002749
8.86,109.014,17.631,100.086,-0.0004121
8.91,109.514,17.631,100.086,0.0000916
8.96,110.014,17.631,100.086,-0.0003205
9.01,110.514,17.631,100.086,-0.0007780
9.06,111.014,17.631,100.085,-0.0005493
9.11,111.515,17.631,100.085,-0.0002745
9.16,112.015,17.631,100.085,-0.0005493
9.21,112.515,17.631,100.085,0.0000000
9.26,113.015,17.631,100.085,-0.0001832
9.31,113.515,17.631,100.085,-0.0002290
9.36,114.015,17.631,100.085,-0.0000916
9.41,114.515,17.631,100.085,-0.0002749
9.46,115.015,17.631,100.085,0.0000000
9.51,115.515,17.631,100.085,-0.0001832
9.56,116.015,17.631,100.085,-0.0000916
9.61,116.515,17.631,100.085,0.0000000
9.66,117.016,17.631,100.084,-0.0001833
9.71,117.516,17.631,100.084,0.0001832
9.76,118.016,17.631,100.084,-0.0000458
9.81,118.516,17.631,100.084,-0.0003667
9.86,119.016,17.631,100.084,-0.0003669
9.91,119.516,17.631,100.084,0.0002751
9.96,120.016,17.631,100.084,-0.0002293
10.01,120.516,17.631,100.084,0.0000000
10.06,121.016,17.631,100.084,0.0003667
10.11,121.516,17.631,100.084,-0.0001833
10.16,122.016,17.631,100.084,-0.0001833
10.21,122.517,17.631,100.084,-0.0000458
10.26,123.017,17.631,100.084,-0.0000916
10.31,123.517,17.631,100.084,0.0000000
10.36,124.017,17.631,100.084,-0.0008248
10.41,124.517,17.631,100.083,-0.0004584
10.46,125.017,17.631,100.083,-0.0004584
10.51,125.517,17.631,100.083,-0.0004126
10.56,126.017,17.631,100.083,-0.0000917
10.61,126.517,17.631,100.083,-0.0000917
10.66,127.017,17.631,100.083,0.0000000
10.71,127.517,17.631,100.083,-0.0002293
10.76,128.018,17.631,100.083,-0.0005049
10.81,128.518,17.631,100.083,-0.0007348
10.86,129.018,17.631,100.083,-0.0001377
10.91,129.518,17.631,100.083,-0.0002755
10.96,130.018,17.631,100.082,-0.0003671
11.01,130.518,17.631,100.082,-0.0003213
11.06,131.018,17.631,100.082,0.0000000
11.11,131.518,17.631,100.082,-0.0002751
11.16,132.018,17.631,100.082,-0.0004126
11.21,132.518,17.631,100.082,-0.0001376
11.26,133.018,17.631,100.082,-0.0002294
11.31,133.518,17.631,100.082,-0.0001837
11.36,134.019,17.631,100.082,-0.0002756
11.41,134.519,17.631,100.082,0.0002757
11.46,135.019,17.631,100.082,-0.0001378
11.51,135.519,17.631,100.082,-0.0000459
11.56,136.019,17.631,100.082,0.0000000
11.61,136.519,17.631,100.082,-0.0002295
11.66,137.019,17.631,100.082,-0.0003670
11.71,137.519,17.631,100.082,-0.0003211
11.76,138.019,17.631,100.081,-0.0002293
11.81,138.519,17.631,100.081,-0.0003209
11.86,139.019,17.631,100.081,-0.0002291
11.91,139.52,17.631,100.081,-0.0003204
11.96,140.02,17.631,100.081,-0.0006400
12.01,140.52,17.63,100.081,-0.0005483
12.06,141.02,17.63,100.08,-0.0007758
12.11,141.52,17.63,100.08,-0.0007298
12.16,142.02,17.63,100.079,-0.0009114
12.21,142.52,17.63,100.079,-0.0005463
12.26,143.02,17.63,100.079,-0.0009097
12.31,143.52,17.63,100.078,-0.0013621
12.36,144.02,17.63,100.078,-0.0014515
12.41,144.52,17.63,100.077,-0.0014508
12.46,145.021,17.63,100.076,-0.0015389
12.51,145.521,17.63,100.075,-0.0019877
12.56,146.021,17.629,100.074,-0.0019390
12.61,146.521,17.629,100.073,-0.0020721
12.66,147.021,17.629,100.072,-0.0023413
12.7,147.521,17.629,100.071,-0.0023874
12.75,148.021,17.629,100.07,-0.0020280
12.8,148.521,17.628,100.069,-0.0023936
12.85,149.021,17.628,100.067,-0.0024419
12.9,149.521,17.628,100.066,-0.0020856
12.95,150.021,17.628,100.065,-0.0019082
13,150.522,17.628,100.064,-0.0020033
13.05,151.022,17.627,100.063,-0.0019171
13.1,151.522,17.627,100.062,-0.0021494
13.15,152.022,17.627,100.061,-0.0020170
13.2,152.522,17.627,100.06,-0.0021132
13.25,153.022,17.627,100.059,-0.0020245
13.3,153.522,17.626,100.058,-0.0017508
13.35,154.022,17.626,100.057,-0.0018445
13.4,154.522,17.626,100.056,-0.0020321
13.45,155.022,17.626,100.055,-0.0017093
13.5,155.522,17.626,100.054,-0.0019416
13.55,156.023,17.626,100.053,-0.0019885
13.6,156.523,17.625,100.052,-0.0018944
13.65,157.023,17.625,100.051,-0.0018934
13.7,157.523,17.625,100.05,-0.0016154
13.76,158.023,17.625,100.049,-0.0017526
13.81,158.523,17.625,100.048,-0.0014759
13.86,159.023,17.625,100.048,-0.0014747
13.91,159.523,17.625,100.047,-0.0018903
13.96,160.023,17.624,100.046,-0.0020273
14.01,160.523,17.624,100.045,-0.0018421
14.06,161.023,17.624,100.044,-0.0020712
14.11,161.523,17.624,100.043,-0.0022545
14.16,162.024,17.624,100.042,-0.0021619
14.21,162.524,17.624,100.041,-0.0018391
14.26,163.024,17.623,100.041,-0.0020230
14.31,163.524,17.623,100.04,-0.0019312
14.36,164.024,17.623,100.039,-0.0021149
14.41,164.524,17.623,100.038,-0.0019302
14.46,165.024,17.623,100.037,-0.0021130
14.51,165.524,17.623,100.036,-0.0021579
14.56,166.024,17.622,100.035,-0.0020193
14.61,166.524,17.622,100.034,-0.0022952
14.66,167.024,17.622,100.033,-0.0020202
14.71,167.525,17.622,100.032,-0.0019273
14.76,168.025,17.622,100.031,-0.0018354
14.81,168.525,17.622,100.03,-0.0020197
14.86,169.025,17.621,100.029,-0.0014690
14.91,169.525,17.621,100.028,-0.0022488
14.96,170.025,17.621,100.027,-0.0019275
15.01,170.525,17.621,100.026,-0.0020643
15.06,171.025,17.621,100.025,-0.0019261
15.11,171.525,17.621,100.024,-0.0018337
15.16,172.025,17.62,100.023,-0.0021534
15.21,172.525,17.62,100.022,-0.0021066
15.26,173.026,17.62,100.021,-0.0018318
15.31,173.526,17.62,100.02,-0.0021998
15.36,174.026,17.62,100.019,-0.0021540
15.41,174.526,17.619,100.018,-0.0022917
15.46,175.026,17.619,100.016,-0.0022927
15.51,175.526,17.619,100.015,-0.0022012
15.56,176.026,17.619,100.014,-0.0021105
15.61,176.526,17.619,100.013,-0.0021554
15.66,177.026,17.618,100.012,-0.0024296
15.71,177.526,17.618,100.011,-0.0022004
15.76,178.026,17.618,100.01,-0.0019257
15.81,178.527,17.618,100.008,-0.0021534
15.86,179.027,17.618,100.007,-0.0021982
15.91,179.527,17.617,100.006,-0.0022892
15.96,180.027,17.617,100.005,-0.0022890
16.01,180.527,17.617,100.004,-0.0022887
16.06,181.027,17.617,100.003,-0.0021066
16.11,181.527,17.617,100.002,-0.0023354
16.16,182.027,17.616,100,-0.0024283
16.21,182.527,17.616,99.999,-0.0023373
16.26,183.027,17.616,99.998,-0.0025665
16.31,183.527,17.616,99.997,-0.0020618
16.36,184.028,17.615,99.995,-0.0021540
16.41,184.528,17.615,99.994,-0.0024278
16.46,185.028,17.615,99.993,-0.0026576
16.51,185.528,17.615,99.992,-0.0025190
16.56,186.028,17.615,99.991,-0.0026111
16.61,186.528,17.614,99.989,-0.0027473
16.66,187.028,17.614,99.988,-0.0026557
16.71,187.528,17.614,99.987,-0.0025632
16.76,188.028,17.614,99.986,-0.0026552
16.81,188.528,17.614,99.984,-0.0026106
16.86,189.028,17.613,99.983,-0.0027936
16.91,189.528,17.613,99.982,-0.0027032
16.96,190.029,17.613,99.98,-0.0027961
17.01,190.529,17.613,99.979,-0.0029347
17.06,191.029,17.612,99.978,-0.0032560
17.11,191.529,17.612,99.976,-0.0029358
17.16,192.029,17.612,99.975,-0.0024748
17.21,192.529,17.612,99.973,-0.0027950
17.26,193.029,17.611,99.972,-0.0023362
17.31,193.529,17.611,99.971,-0.0028846
17.36,194.029,17.611,99.969,-0.0027015
17.41,194.529,17.611,99.968,-0.0023352
17.46,195.029,17.61,99.967,-0.0026550
17.51,195.53,17.61,99.965,-0.0027015
17.56,196.03,17.61,99.964,-0.0033425
17.61,196.53,17.61,99.962,-0.0027935
17.66,197.03,17.609,99.961,-0.0028388
17.71,197.53,17.609,99.959,-0.0031144
17.77,198.03,17.609,99.958,-0.0027478
17.82,198.53,17.609,99.957,-0.0026564
17.87,199.03,17.608,99.955,-0.0026099
17.92,199.53,17.608,99.954,-0.0027473
17.97,200.03,17.608,99.952,-0.0029296
18.02,200.53,17.608,99.951,-0.0029312
18.07,201.031,17.607,99.949,-0.0029310
18.12,201.531,17.607,99.948,-0.0025646
18.17,202.031,17.607,99.947,-0.0027935
18.22,202.531,17.607,99.945,-0.0027936
18.27,203.031,17.606,99.944,-0.0030206
18.32,203.531,17.606,99.942,-0.0026549
18.37,204.031,17.606,99.941,-0.0030205
18.42,204.531,17.606,99.939,-0.0031116
18.47,205.031,17.605,99.938,-0.0030650
18.52,205.531,17.605,99.936,-0.0031098
18.57,206.031,17.605,99.934,-0.0027897
18.62,206.532,17.604,99.933,-0.0030192
18.67,207.032,17.604,99.931,-0.0028370
18.72,207.532,17.604,99.93,-0.0032967
18.77,208.032,17.604,99.928,-0.0030678
18.82,208.532,17.603,99.927,-0.0030686
18.87,209.032,17.603,99.925,-0.0029762
18.92,209.532,17.603,99.924,-0.0032509
18.97,210.032,17.603,99.922,-0.0031628
19.02,210.532,17.602,99.92,-0.0030742
19.07,211.032,17.602,99.919,-0.0029374
19.12,211.532,17.602,99.917,-0.0033502
19.17,212.033,17.601,99.916,-0.0029358
19.22,212.533,17.601,99.914,-0.0033939
19.27,213.033,17.601,99.913,-0.0035754
19.32,213.533,17.601,99.911,-0.0035273
19.37,214.033,17.6,99.909,-0.0033434
19.42,214.533,17.6,99.908,-0.0036640
19.47,215.033,17.6,99.906,-0.0033434
19.52,215.533,17.599,99.904,-0.0034337
19.57,216.033,17.599,99.903,-0.0033419
19.62,216.533,17.599,99.901,-0.0035263
19.67,217.033,17.599,99.9,-0.0033914
19.72,217.533,17.598,99.898,-0.0032554
19.77,218.034,17.598,99.896,-0.0034388
19.82,218.534,17.598,99.895,-0.0030253
19.87,219.034,17.597,99.893,-0.0031622
19.92,219.534,17.597,99.891,-0.0035289
19.97,220.034,17.597,99.89,-0.0034404
20.02,220.534,17.597,99.888,-0.0033501
20.07,221.034,17.596,99.886,-0.0031666
20.12,221.534,17.596,99.885,-0.0033511
20.17,222.034,17.596,99.883,-0.0033502
20.22,222.534,17.595,99.881,-0.0033471
20.27,223.034,17.595,99.88,-0.0033967
20.32,223.535,17.595,99.878,-0.0033936
20.37,224.035,17.595,99.876,-0.0028409
20.42,224.535,17.594,99.875,-0.0034366
20.47,225.035,17.594,99.873,-0.0034350
20.52,225.535,17.594,99.871,-0.0034356
20.57,226.035,17.593,99.87,-0.0033447
20.62,226.535,17.593,99.868,-0.0033447
20.67,227.035,17.593,99.866,-0.0036647
20.72,227.535,17.592,99.864,-0.0036189
20.77,228.035,17.592,99.863,-0.0035747
20.82,228.535,17.592,99.861,-0.0034372
20.87,229.036,17.592,99.859,-0.0032545
20.92,229.536,17.591,99.858,-0.0036215
20.97,230.036,17.591,99.856,-0.0037139
21.02,230.536,17.591,99.854,-0.0036664
21.07,231.036,17.59,99.852,-0.0034824
21.12,231.536,17.59,99.851,-0.0036205
21.17,232.036,17.59,99.849,-0.0035730
21.22,232.536,17.589,99.847,-0.0035714
21.27,233.036,17.589,99.846,-0.0033889
21.32,233.536,17.589,99.844,-0.0035731
21.37,234.036,17.588,99.842,-0.0036189
21.42,234.537,17.588,99.84,-0.0034372
21.47,235.037,17.588,99.838,-0.0037125
21.52,235.537,17.588,99.837,-0.0032530
21.57,236.037,17.587,99.835,-0.0032527
21.62,236.537,17.587,99.833,-0.0029325
21.67,237.037,17.587,99.832,-0.0032066
21.72,237.537,17.586,99.83,-0.0034363
21.77,238.037,17.586,99.828,-0.0032524
21.82,238.537,17.586,99.826,-0.0030220
21.87,239.037,17.585,99.825,-0.0035256
21.92,239.537,17.585,99.823,-0.0036637
21.97,240.038,17.585,99.821,-0.0035714
22.02,240.538,17.584,99.819,-0.0033883
22.07,241.038,17.584,99.818,-0.0034363
22.12,241.538,17.584,99.816,-0.0036680
22.17,242.038,17.584,99.814,-0.0036198
22.22,242.538,17.583,99.812,-0.0037132
22.27,243.038,17.583,99.81,-0.0036195
22.32,243.538,17.583,99.808,-0.0035734
22.37,244.038,17.582,99.807,-0.0036179
22.42,244.538,17.582,99.805,-0.0037078
22.47,245.038,17.582,99.803,-0.0041209
22.52,245.538,17.581,99.801,-0.0035256
22.57,246.039,17.581,99.799,-0.0035714
22.62,246.539,17.581,99.797,-0.0037071
22.67,247.039,17.58,99.796,-0.0037979
22.72,247.539,17.58,99.794,-0.0038462
22.77,248.039,17.58,99.792,-0.0035708
22.82,248.539,17.579,99.79,-0.0037098
22.87,249.039,17.579,99.788,-0.0037580
22.92,249.539,17.579,99.787,-0.0036670
22.97,250.039,17.578,99.785,-0.0035757
23.02,250.539,17.578,99.783,-0.0037574
23.07,251.039,17.578,99.781,-0.0036189
23.12,251.54,17.577,99.779,-0.0036199
23.17,252.04,17.577,99.778,-0.0034830
23.22,252.54,17.577,99.776,-0.0038504
23.27,253.04,17.576,99.774,-0.0039403
23.32,253.54,17.576,99.772,-0.0038490
23.37,254.04,17.576,99.77,-0.0037553
23.42,254.54,17.575,99.768,-0.0037556
23.47,255.04,17.575,99.766,-0.0042147
23.52,255.54,17.575,99.764,-0.0040773
23.57,256.04,17.574,99.762,-0.0035741
23.62,256.54,17.574,99.76,-0.0039407
23.67,257.041,17.574,99.758,-0.0035734
23.72,257.541,17.573,99.757,-0.0041232
23.77,258.041,17.573,99.755,-0.0037566
23.82,258.541,17.573,99.753,-0.0036172
23.87,259.041,17.572,99.751,-0.0040766
23.92,259.541,17.572,99.749,-0.0039377
23.97,260.041,17.572,99.747,-0.0039835
24.02,260.541,17.571,99.745,-0.0039356
24.07,261.041,17.571,99.743,-0.0038919
24.12,261.541,17.571,99.741,-0.0038919
24.17,262.041,17.57,99.739,-0.0040293
24.22,262.542,17.57,99.737,-0.0041231
24.27,263.042,17.57,99.735,-0.0038955
24.32,263.542,17.569,99.733,-0.0041224
24.37,264.042,17.569,99.731,-0.0041690
24.42,264.542,17.569,99.729,-0.0044929
24.47,265.042,17.568,99.727,-0.0038504
24.52,265.542,17.568,99.725,-0.0041261
24.57,266.042,17.568,99.723,-0.0040352
24.62,266.542,17.567,99.721,-0.0043997
24.67,267.042,17.567,99.719,-0.0041712
24.72,267.542,17.566,99.717,-0.0040330
24.77,268.043,17.566,99.715,-0.0042582
24.82,268.543,17.566,99.713,-0.0042606
24.87,269.043,17.565,99.711,-0.0040308
24.92,269.543,17.565,99.709,-0.0043040
24.97,270.043,17.565,99.707,-0.0039413
25.02,270.543,17.564,99.705,-0.0043057
25.07,271.043,17.564,99.703,-0.0044430
25.12,271.543,17.564,99.701,-0.0044397
25.17,272.043,17.563,99.699,-0.0042101
25.22,272.543,17.563,99.697,-0.0042141
25.27,273.043,17.563,99.695,-0.0043522
25.32,273.543,17.562,99.693,-0.0045354
25.37,274.044,17.562,99.69,-0.0043956
25.42,274.544,17.561,99.688,-0.0041697
25.47,275.044,17.561,99.686,-0.0040751
25.52,275.544,17.561,99.684,-0.0043056
25.57,276.044,17.56,99.682,-0.0044430
25.62,276.544,17.56,99.68,-0.0044431
25.67,277.044,17.56,99.678,-0.0043072
25.72,277.544,17.559,99.676,-0.0043080
25.77,278.044,17.559,99.674,-0.0044013
25.82,278.544,17.558,99.671,-0.0045371
25.87,279.044,17.558,99.669,-0.0043522
25.92,279.545,17.558,99.667,-0.0043056
25.97,280.045,17.557,99.665,-0.0042140
26.02,280.545,17.557,99.663,-0.0046703
26.07,281.045,17.557,99.661,-0.0043498
26.12,281.545,17.556,99.659,-0.0045788
26.17,282.045,17.556,99.656,-0.0044872
26.22,282.545,17.555,99.654,-0.0045330
26.27,283.045,17.555,99.652,-0.0044872
26.32,283.545,17.555,99.65,-0.0042582
26.37,284.045,17.554,99.648,-0.0042598
26.42,284.545,17.554,99.645,-0.0043956
26.47,285.046,17.553,99.643,-0.0044414
26.52,285.546,17.553,99.641,-0.0040773
26.57,286.046,17.553,99.639,-0.0044446
26.62,286.546,17.552,99.636,-0.0047161
26.67,287.046,17.552,99.634,-0.0045813
26.72,287.546,17.551,99.632,-0.0043980
26.77,288.046,17.551,99.63,-0.0044896
26.82,288.546,17.551,99.627,-0.0043980
26.87,289.046,17.55,99.625,-0.0045347
26.92,289.546,17.55,99.623,-0.0044888
26.97,290.046,17.549,99.621,-0.0043498
27.02,290.547,17.549,99.618,-0.0045330
27.07,291.047,17.549,99.616,-0.0043498
27.12,291.547,17.548,99.614,-0.0044414
27.17,292.047,17.548,99.612,-0.0043956
27.22,292.547,17.547,99.609,-0.0046271
27.27,293.047,17.547,99.607,-0.0045813
27.32,293.547,17.547,99.605,-0.0045354
27.37,294.047,17.546,99.603,-0.0042582
27.42,294.547,17.546,99.6,-0.0045304
27.47,295.047,17.545,99.598,-0.0045788
27.52,295.547,17.545,99.596,-0.0044872
27.57,296.048,17.545,99.594,-0.0044414
27.62,296.548,17.544,99.591,-0.0044414
27.67,297.048,17.544,99.589,-0.0045788
27.72,297.548,17.544,99.587,-0.0047161
27.77,298.048,17.543,99.585,-0.0046219
27.82,298.548,17.543,99.582,-0.0048077
27.87,299.048,17.542,99.58,-0.0046729
27.92,299.548,17.542,99.578,-0.0045354
27.97,300.048,17.541,99.575,-0.0047161
28.02,300.548,17.541,99.573,-0.0047179
28.07,301.048,17.541,99.571,-0.0047196
28.12,301.548,17.54,99.568,-0.0049469
28.17,302.049,17.54,99.566,-0.0045346
28.22,302.549,17.539,99.564,-0.0044897
28.27,303.049,17.539,99.561,-0.0046729
28.32,303.549,17.539,99.559,-0.0047161
28.37,304.049,17.538,99.557,-0.0048077
28.42,304.549,17.538,99.554,-0.0048993
28.47,305.049,17.537,99.552,-0.0046304
28.52,305.549,17.537,99.55,-0.0044472
28.57,306.049,17.537,99.547,-0.0049523
28.62,306.549,17.536,99.545,-0.0055963
28.67,307.049,17.536,99.542,-0.0050917
28.72,307.55,17.535,99.539,-0.0048138
28.77,308.05,17.535,99.537,-0.0048094
28.82,308.55,17.534,99.534,-0.0048517
28.87,309.05,17.534,99.532,-0.0051721
28.92,309.55,17.533,99.529,-0.0048463
28.98,310.05,17.533,99.527,-0.0048929
29.03,310.55,17.532,99.524,-0.0048509
29.08,311.05,17.532,99.522,-0.0050778
29.13,311.55,17.532,99.519,-0.0051235
29.18,312.05,17.531,99.517,-0.0049414
29.23,312.55,17.531,99.514,-0.0046670
29.28,313.051,17.53,99.512,-0.0046245
29.33,313.551,17.53,99.509,-0.0048077
29.38,314.051,17.529,99.507,-0.0047187
29.43,314.551,17.529,99.505,-0.0048104
29.48,315.051,17.529,99.502,-0.0048094
29.53,315.551,17.528,99.5,-0.0048580
29.58,316.051,17.528,99.497,-0.0050852
29.63,316.551,17.527,99.495,-0.0054487
29.68,317.051,17.527,99.492,-0.0046245
29.73,317.551,17.526,99.49,-0.0048103
29.78,318.051,17.526,99.487,-0.0049935
29.83,318.552,17.525,99.485,-0.0049010
29.88,319.052,17.525,99.482,-0.0048051
29.93,319.552,17.525,99.48,-0.0046677
29.98,320.052,17.524,99.477,-0.0045788
30.03,320.552,17.524,99.475,-0.0047619
30.08,321.052,17.523,99.472,-0.0050366
30.13,321.552,17.523,99.47,-0.0051282
30.18,322.052,17.522,99.467,-0.0048544
30.23,322.552,17.522,99.465,-0.0050366
30.28,323.052,17.522,99.462,-0.0048561
30.33,323.552,17.521,99.46,-0.0049478
30.38,324.053,17.521,99.457,-0.0047204
30.43,324.553,17.52,99.455,-0.0048570
30.48,325.053,17.52,99.452,-0.0048077
30.53,325.553,17.519,99.45,-0.0048517
30.58,326.053,17.519,99.447,-0.0049011
30.63,326.553,17.518,99.445,-0.0049468
30.68,327.053,17.518,99.442,-0.0046730
30.73,327.553,17.518,99.44,-0.0054049
30.78,328.053,17.517,99.437,-0.0044438
30.83,328.553,17.517,99.435,-0.0050824
30.88,329.053,17.516,99.432,-0.0058150
30.93,329.553,17.516,99.43,-0.0056797
30.98,330.054,17.515,99.427,-0.0050815
31.03,330.554,17.515,99.424,-0.0048077
31.08,331.054,17.514,99.422,-0.0053999
31.13,331.554,17.514,99.419,-0.0053553
31.18,332.054,17.513,99.416,-0.0052617
31.23,332.554,17.513,99.414,-0.0054458
31.28,333.054,17.513,99.411,-0.0052656
31.33,333.554,17.512,99.408,-0.0057692
31.38,334.054,17.512,99.406,-0.0057714
31.43,334.554,17.511,99.403,-0.0058586
31.48,335.054,17.511,99.4,-0.0056777
31.53,335.555,17.51,99.397,-0.0056319
31.58,336.055,17.51,99.395,-0.0058608
31.63,336.555,17.509,99.392,-0.0055372
31.68,337.055,17.509,99.389,-0.0052656
31.73,337.555,17.508,99.386,-0.0053114
31.78,338.055,17.508,99.384,-0.0050824
31.83,338.555,17.507,99.381,-0.0052675
31.88,339.055,17.507,99.378,-0.0055443
31.93,339.555,17.506,99.376,-0.0056339
31.98,340.055,17.506,99.373,-0.0052656
32.03,340.555,17.505,99.37,-0.0055424
32.08,341.056,17.505,99.367,-0.0056350
32.13,341.556,17.504,99.364,-0.0056777
32.18,342.056,17.504,99.362,-0.0051712
32.23,342.556,17.503,99.359,-0.0059033
32.28,343.056,17.503,99.356,-0.0051713
32.33,343.556,17.502,99.353,-0.0058118
32.38,344.056,17.502,99.351,-0.0059023
32.43,344.556,17.501,99.348,-0.0059034
32.48,345.056,17.501,99.345,-0.0055830
32.53,345.556,17.5,99.342,-0.0055840
32.58,346.056,17.5,99.339,-0.0060440
32.63,346.557,17.499,99.336,-0.0055403
32.68,347.057,17.499,99.333,-0.0058608
32.73,347.557,17.498,99.331,-0.0057713
32.78,348.057,17.498,99.328,-0.0058150
32.83,348.557,17.497,99.325,-0.0057692
32.88,349.057,17.497,99.322,-0.0060383
32.93,349.557,17.496,99.319,-0.0059034
32.98,350.057,17.496,99.316,-0.0057671
33.03,350.557,17.495,99.313,-0.0058119
33.08,351.057,17.495,99.31,-0.0057234
33.13,351.557,17.494,99.307,-0.0060440
33.18,352.058,17.494,99.304,-0.0056319
33.23,352.558,17.493,99.302,-0.0054517
33.28,353.058,17.493,99.299,-0.0060015
33.33,353.558,17.492,99.296,-0.0058608
33.38,354.058,17.492,99.293,-0.0055403
33.43,354.558,17.491,99.29,-0.0055352
33.48,355.058,17.491,99.287,-0.0056735
33.53,355.558,17.49,99.284,-0.0059949
33.58,356.058,17.49,99.281,-0.0060897
33.63,356.558,17.489,99.278,-0.0057692
33.68,357.058,17.489,99.275,-0.0059557
33.73,357.558,17.488,99.272,-0.0065548
33.78,358.059,17.488,99.269,-0.0060976
33.83,358.559,17.487,99.266,-0.0054049
33.88,359.059,17.486,99.263,-0.0068223
33.93,359.559,17.486,99.259,-0.0066392
33.98,360.059,17.485,99.256,-0.0062706
34.03,360.559,17.485,99.253,-0.0065440
34.08,361.059,17.484,99.25,-0.0064068
34.13,361.559,17.484,99.246,-0.0065440
34.18,362.059,17.483,99.243,-0.0059960
34.23,362.559,17.482,99.24,-0.0060417
34.28,363.059,17.482,99.237,-0.0065934
34.33,363.56,17.481,99.233,-0.0067827
34.38,364.06,17.481,99.23,-0.0065537
34.43,364.56,17.48,99.227,-0.0063703
34.48,365.06,17.48,99.224,-0.0067308
34.53,365.56,17.479,99.22,-0.0065910
34.58,366.06,17.478,99.217,-0.0064959
34.63,366.56,17.478,99.214,-0.0064959
34.68,367.06,17.477,99.211,-0.0067247
34.73,367.56,17.477,99.207,-0.0068618
34.78,368.06,17.476,99.204,-0.0068656
34.83,368.56,17.475,99.2,-0.0070055
34.88,369.061,17.475,99.197,-0.0069634
34.93,369.561,17.474,99.193,-0.0070082
34.98,370.061,17.474,99.19,-0.0070971
35.03,370.561,17.473,99.186,-0.0071926
35.08,371.061,17.472,99.183,-0.0074676
35.13,371.561,17.472,99.179,-0.0072344
35.18,372.061,17.471,99.175,-0.0076965
35.23,372.561,17.47,99.171,-0.0075605
35.28,373.061,17.47,99.168,-0.0074217
35.33,373.561,17.469,99.164,-0.0080128
35.38,374.061,17.468,99.16,-0.0083823
35.43,374.562,17.468,99.156,-0.0081044
35.48,375.062,17.467,99.152,-0.0086111
35.53,375.562,17.466,99.148,-0.0084296
35.58,376.062,17.465,99.143,-0.0088451
35.63,376.562,17.465,99.139,-0.0087961
35.68,377.062,17.464,99.134,-0.0088894
35.73,377.562,17.463,99.13,-0.0093898
35.78,378.062,17.462,99.125,-0.0093458
35.83,378.562,17.461,99.121,-0.0096665
35.88,379.062,17.461,99.116,-0.0097070
35.93,379.562,17.46,99.111,-0.0099359
35.98,380.063,17.459,99.106,-0.0105408
36.03,380.563,17.458,99.101,-0.0096243
36.08,381.063,17.457,99.096,-0.0105408
36.13,381.563,17.456,99.091,-0.0116822
36.18,382.063,17.455,99.085,-0.0109830
36.23,382.563,17.454,99.08,-0.0106091
36.28,383.063,17.453,99.074,-0.0112849
36.33,383.563,17.452,99.068,-0.0120091
36.38,384.063,17.451,99.062,-0.0120070
36.43,384.563,17.45,99.057,-0.0110919
36.48,385.063,17.449,99.051,-0.0120849
36.53,385.563,17.448,99.044,-0.0127622
36.58,386.064,17.447,99.038,-0.0135036
36.63,386.564,17.446,99.031,-0.0130931
36.68,387.064,17.444,99.025,-0.0132299
36.73,387.564,17.443,99.018,-0.0141984
36.78,388.064,17.442,99.01,-0.0146522
36.83,388.564,17.441,99.003,-0.0148456
36.88,389.064,17.439,98.996,-0.0151390
36.93,389.564,17.438,98.988,-0.0158825
36.98,390.064,17.437,98.98,-0.0161231
37.03,390.564,17.435,98.972,-0.0167186
37.08,391.064,17.434,98.963,-0.0170027
37.13,391.565,17.432,98.955,-0.0172414
37.18,392.065,17.431,98.946,-0.0177884
37.23,392.565,17.429,98.937,-0.0184761
37.28,393.065,17.427,98.928,-0.0182334
37.33,393.565,17.426,98.918,-0.0188290
37.38,394.065,17.424,98.909,-0.0194775
37.43,394.565,17.422,98.899,-0.0197525
37.48,395.065,17.421,98.889,-0.0198406
37.53,395.565,17.419,98.879,-0.0199743
37.58,396.065,17.417,98.869,-0.0207150
37.63,396.565,17.415,98.858,-0.0207875
37.68,397.066,17.413,98.848,-0.0212571
37.73,397.566,17.411,98.837,-0.0214168
37.78,398.066,17.409,98.826,-0.0221866
37.83,398.566,17.407,98.815,-0.0226441
37.88,399.066,17.405,98.803,-0.0231015
37.93,399.566,17.403,98.792,-0.0232601
37.98,400.066,17.401,98.78,-0.0241167
38.03,400.566,17.399,98.768,-0.0246201
38.08,401.066,17.397,98.756,-0.0248948
38.13,401.566,17.395,98.743,-0.0257326
38.18,402.066,17.393,98.73,-0.0257972
38.23,402.567,17.39,98.717,-0.0263182
38.28,403.067,17.388,98.704,-0.0269083
38.33,403.567,17.386,98.69,-0.0272287
38.38,404.067,17.383,98.676,-0.0277473
38.43,404.567,17.381,98.662,-0.0285256
38.48,405.067,17.378,98.648,-0.0294306
38.53,405.567,17.375,98.633,-0.0299341
38.58,406.067,17.373,98.618,-0.0308438
38.63,406.567,17.37,98.602,-0.0316276
38.68,407.067,17.367,98.586,-0.0320795
38.73,407.567,17.364,98.57,-0.0329826
38.78,408.068,17.361,98.553,-0.0340930
38.83,408.568,17.358,98.536,-0.0348709
38.88,409.068,17.355,98.518,-0.0357469
38.93,409.568,17.352,98.5,-0.0364268
38.98,410.068,17.349,98.482,-0.0376374
39.03,410.568,17.345,98.463,-0.0386305
39.08,411.068,17.342,98.443,-0.0395147
39.13,411.568,17.339,98.423,-0.0404540
39.18,412.068,17.335,98.403,-0.0415140
39.23,412.568,17.331,98.382,-0.0423605
39.28,413.068,17.327,98.36,-0.0436871
39.33,413.568,17.323,98.338,-0.0446771
39.38,414.069,17.319,98.315,-0.0462489
39.43,414.569,17.315,98.292,-0.0472553
39.48,415.069,17.311,98.267,-0.0492314
39.53,415.569,17.307,98.243,-0.0512175
39.58,416.069,17.302,98.217,-0.0516673
39.63,416.569,17.298,98.191,-0.0526557
39.68,417.069,17.293,98.164,-0.0543498
39.73,417.569,17.288,98.137,-0.0559776
39.78,418.069,17.283,98.109,-0.0572802
39.83,418.569,17.278,98.08,-0.0589419
39.88,419.069,17.273,98.05,-0.0599505
39.93,419.57,17.267,98.019,-0.0620312
39.98,420.07,17.262,97.987,-0.0655297
40.03,420.57,17.256,97.953,-0.0753155
40.08,421.07,17.249,97.917,-0.0733762
40.13,421.57,17.242,97.877,-0.0829982
40.18,422.07,17.235,97.835,-0.0787910
40.23,422.57,17.227,97.79,-0.0805123
40.28,423.07,17.219,97.744,-0.0926867
40.33,423.57,17.21,97.696,-0.1019310
40.38,424.07,17.202,97.646,-0.1060440
40.43,424.57,17.193,97.595,-0.1060900
40.48,425.071,17.183,97.541,-0.1091710
40.53,425.571,17.173,97.486,-0.1134160
40.58,426.071,17.163,97.43,-0.1184790
40.63,426.571,17.153,97.371,-0.1247940
40.68,427.071,17.143,97.311,-0.1202680
40.73,427.571,17.132,97.249,-0.1197900
40.78,428.071,17.12,97.184,-0.1299360
40.83,428.571,17.109,97.119,-0.1362430
40.88,429.071,17.097,97.051,-0.1363750
40.93,429.571,17.084,96.98,-0.1356490
40.98,430.071,17.072,96.908,-0.1396770
41.03,430.572,17.059,96.836,-0.1465320
41.08,431.072,17.046,96.762,-0.1494050
41.13,431.572,17.033,96.687,-0.1482400
41.18,432.072,17.019,96.609,-0.1545760
41.23,432.572,17.004,96.527,-0.1590740
41.28,433.072,16.99,96.442,-0.1760720
41.33,433.572,16.974,96.355,-0.1813570
41.38,434.072,16.958,96.262,-0.1851550
41.43,434.572,16.941,96.165,-0.1997720
41.48,435.072,16.922,96.06,-0.2195630
41.53,435.572,16.902,95.945,-0.2367240
41.58,436.073,16.881,95.827,-0.2358270
41.63,436.573,16.86,95.706,-0.2462440
41.68,437.073,16.837,95.578,-0.2554150
41.73,437.573,16.815,95.451,-0.2529390
41.78,438.073,16.792,95.323,-0.2565290
41.83,438.573,16.77,95.193,-0.2556550
41.88,439.073,16.746,95.06,-0.2688990
41.93,439.573,16.721,94.919,-0.2880390
41.98,440.073,16.694,94.764,-0.3206150
42.03,440.573,16.664,94.597,-0.3476970
42.08,441.073,16.632,94.415,-0.3655730
42.13,441.573,16.6,94.231,-0.4011430
42.18,442.074,16.566,94.038,-0.3852000
42.23,442.574,16.531,93.841,-0.3929940
42.28,443.074,16.497,93.644,-0.4057690
42.33,443.574,16.462,93.448,-0.3984890
42.38,444.074,16.427,93.25,-0.4001100
42.43,444.574,16.391,93.046,-0.4157970
42.48,445.074,16.353,92.83,-0.4516370
42.53,445.574,16.315,92.611,-0.4561520
42.58,446.074,16.275,92.384,-0.4622250
42.63,446.574,16.232,92.143,-0.4960160
42.68,447.074,16.188,91.89,-0.5151870
42.73,447.575,16.142,91.629,-0.5247630
42.78,448.075,16.094,91.359,-0.4983030
42.83,448.575,16.046,91.088,-0.5242830
42.88,449.075,16,90.822,-0.4824570
42.93,449.575,15.954,90.565,-0.5358450
42.98,450.075,15.904,90.281,-0.6035120
43.03,450.575,15.85,89.974,-0.5998530
43.08,451.075,15.792,89.646,-0.6880140
43.13,451.575,15.729,89.286,-0.7361930
43.18,452.075,15.662,88.906,-0.7451830
43.23,452.575,15.597,88.535,-0.7227520
43.28,453.076,15.533,88.175,-0.7555520
43.33,453.576,15.463,87.779,-0.8330730
43.38,454.076,15.396,87.396,-0.7886650
43.43,454.576,15.323,86.982,-0.8936740
43.48,455.076,15.241,86.518,-0.9734890
43.53,455.576,15.157,86.037,-0.9799700
43.58,456.076,15.072,85.558,-0.9757340
43.63,456.576,14.984,85.056,-1.01648
43.68,457.076,14.897,84.563,-0.9137420
43.73,457.576,14.811,84.073,-1.09377
43.78,458.076,14.711,83.507,-1.17953
43.83,458.577,14.606,82.913,-1.22265
43.88,459.077,14.496,82.285,-1.28332
43.93,459.577,14.384,81.65,-1.17931
43.98,460.077,14.279,81.054,-1.24867
44.03,460.577,14.163,80.396,-1.37022
44.08,461.077,14.038,79.688,-1.46512
44.13,461.577,13.905,78.934,-1.52786
44.18,462.077,13.782,78.237,-1.43732
44.23,462.577,13.649,77.481,-1.51415
44.28,463.077,13.514,76.712,-1.64263
44.33,463.577,13.368,75.886,-1.69135
44.38,464.078,13.214,75.011,-1.79122
44.43,464.578,13.059,74.128,-1.82476
44.48,465.078,12.906,73.26,-1.7549
44.53,465.578,12.742,72.328,-1.99711
44.58,466.078,12.563,71.314,-2.04528
44.63,466.578,12.388,70.323,-1.95664
44.68,467.078,12.212,69.324,-2.06275
44.73,467.578,12.024,68.253,-2.18215
44.78,468.078,11.834,67.175,-2.1832
44.83,468.578,11.631,66.023,-2.38503
44.88,469.078,11.427,64.866,-2.32027
44.93,469.578,11.222,63.705,-2.37111
44.98,470.079,10.999,62.437,-2.62292
45.03,470.579,10.765,61.11,-2.61774
45.08,471.079,10.534,59.795,-2.60983
45.13,471.579,10.3,58.467,-2.7595
45.18,472.079,10.05,57.052,-2.92321
45.23,472.579,9.798,55.62,-2.88166
45.28,473.079,9.535,54.127,-3.04998
45.33,473.579,9.264,52.586,-3.03741
45.38,474.079,8.993,51.051,-3.06461
45.43,474.579,8.708,49.429,-3.21348
45.48,475.079,8.418,47.786,-3.27281
45.53,475.58,8.127,46.133,-3.31223
45.58,476.08,7.832,44.459,-3.30244
45.63,476.58,7.533,42.761,-3.45171
45.68,477.08,7.222,40.999,-3.63531
45.73,477.58,6.906,39.203,-3.66658
45.78,478.08,6.587,37.391,-3.65935
45.83,478.58,6.26,35.537,-3.70691
45.88,479.08,5.932,33.671,-3.79145
45.93,479.58,5.608,31.836,-3.64378
45.98,480.08,5.281,29.976,-3.76231
46.03,480.58,4.946,28.075,-3.80782
46.08,481.081,4.593,26.074,-2.98797
46.13,481.581,4.307,24.447,-3.51044
46.18,482.081,4.017,22.805,-2.89055
46.23,482.581,3.745,21.259,-3.1234
46.28,483.081,3.469,19.693,-3.20892
46.33,483.581,3.175,18.024,-3.33252
46.38,484.081,2.89,16.407,-3.30972
46.43,484.581,2.609,14.808,-2.99406
46.48,485.081,2.36,13.399,-2.81793
46.53,485.581,2.113,11.993,-2.73332
46.58,486.081,1.877,10.658,-2.6606
46.62,486.582,1.667,9.464,-2.12668
46.67,487.082,1.477,8.385,-2.05065
46.72,487.582,1.304,7.403,-1.91524
46.77,488.082,1.14,6.471,-1.76621
46.82,488.582,0.9900000,5.62,-1.59009
46.87,489.082,0.8610000,4.885,-1.40583
46.92,489.582,0.7440000,4.225,-1.2231
46.97,490.082,0.6480000,3.681,-1.01964
47.02,490.582,0.5660000,3.21,-0.8345390
47.07,491.082,0.5000000,2.839,-0.6591050
47.12,491.582,0.4470000,2.536,-0.5232880
47.17,492.083,0.4050000,2.302,-0.3796890
47.21,492.583,0.3760000,2.134,-0.3008450
47.26,493.083,0.3540000,2.007,-0.2086060
47.31,493.583,0.3380000,1.919,-0.1421000
47.36,494.083,0.3280000,1.86,-0.0918013
47.41,494.583,0.3220000,1.826,-0.0519719
47.47,495.083,0.3180000,1.806,-0.0297382
47.52,495.583,0.3160000,1.791,-0.0308341
47.57,496.083,0.3130000,1.776,-0.0279653
47.62,496.583,0.3110000,1.763,-0.0240948
47.67,497.083,0.3090000,1.752,-0.0197352
47.72,497.583,0.3070000,1.743,-0.0159301
47.77,498.084,0.3060000,1.736,-0.0126993
47.82,498.584,0.3050000,1.73,-0.0103387
47.87,499.084,0.3040000,1.726,-0.0079272
47.92,499.584,0.3030000,1.722,-0.0062326
47.97,500.084,0.3030000,1.719,-0.0047934
48.03,500.584,0.3020000,1.717,-0.0042091
48.08,501.084,0.3020000,1.715,-0.0034388
48.13,501.584,0.3020000,1.714,-0.0025039
48.18,502.084,0.3020000,1.713,-0.0021058
48.23,502.584,0.3020000,1.712,-0.0020984
48.28,503.084,0.3010000,1.711,-0.0012916
48.33,503.585,0.3010000,1.71,-0.0011232
48.38,504.085,0.3010000,1.71,-0.0011107
48.43,504.585,0.3010000,1.709,-0.0006021
48.48,505.085,0.3010000,1.709,-0.0002050
48.53,505.585,0.3010000,1.709,-0.0004318
48.58,506.085,0.3010000,1.708,-0.0004997
48.63,506.585,0.3010000,1.708,-0.0004510
48.68,507.085,0.3010000,1.708,-0.0005191
48.73,507.585,0.3010000,1.708,-0.0001632
48.78,508.085,0.3010000,1.707,-0.0000071
48.83,508.585,0.3010000,1.707,-0.0004378
48.88,509.086,0.3010000,1.707,-0.0002209
48.93,509.586,0.3010000,1.707,-0.0002030
48.98,510.086,0.3010000,1.707,0.0001230
49.03,510.586,0.3010000,1.707,-0.0002889
49.08,511.086,0.3010000,1.707,0.0000086
49.13,511.586,0.3010000,1.707,-0.0000236
49.18,512.086,0.3010000,1.707,-0.0003217
49.23,512.586,0.3010000,1.707,-0.0004966
49.28,513.086,0.3010000,1.707,-0.0003902
49.33,513.586,0.3010000,1.707,-0.0001779
49.38,514.086,0.3010000,1.706,-0.0005203
49.43,514.587,0.3010000,1.706,-0.0004271
49.48,515.087,0.3010000,1.706,-0.0001956
49.53,515.587,0.3010000,1.706,-0.0002098
49.58,516.087,0.3010000,1.706,-0.0002900
49.63,516.587,0.3010000,1.706,-0.0002737
49.68,517.087,0.3010000,1.706,-0.0001264
49.73,517.587,0.3010000,1.706,-0.0002186
49.78,518.087,0.3010000,1.706,-0.0001306
49.83,518.587,0.3010000,1.706,-0.0000585
49.88,519.087,0.3010000,1.706,-0.0001727
49.93,519.587,0.3010000,1.706,-0.0000864
49.98,520.088,0.3000000,1.706,-0.0000614
50.03,520.588,0.3000000,1.706,0.0002330
50.08,521.088,0.3000000,1.706,0.0000350
50.13,521.588,0.3000000,1.706,-0.0002921
50.18,522.088,0.3000000,1.705,-0.0001436
50.23,522.588,0.3000000,1.705,0.0000064
50.28,523.088,0.3000000,1.706,0.0000057
50.33,523.588,0.3000000,1.706,-0.0001451
50.38,524.088,0.3000000,1.706,-0.0001728
50.43,524.588,0.3000000,1.706,0.0000472
50.48,525.088,0.3000000,1.706,-0.0001707
50.53,525.588,0.3000000,1.705,-0.0001730
50.58,526.089,0.3000000,1.705,-0.0002123
50.63,526.589,0.3000000,1.705,-0.0004691
50.68,527.089,0.3000000,1.705,-0.0001279
50.73,527.589,0.3000000,1.705,-0.0002549
50.78,528.089,0.3000000,1.705,-0.0002692
50.83,528.589,0.3000000,1.705,-0.0001523
50.88,529.089,0.3000000,1.705,-0.0002506
50.93,529.589,0.3000000,1.705,-0.0001543
50.98,530.089,0.3000000,1.705,-0.0001922
51.03,530.589,0.3000000,1.705,-0.0001207
51.08,531.089,0.3000000,1.705,0.0000072
51.13,531.59,0.3000000,1.705,0.0001937
51.18,532.09,0.3000000,1.705,0.0000979
51.23,532.59,0.3000000,1.705,0.0003460
51.28,533.09,0.3000000,1.705,-0.0000393
51.33,533.59,0.3000000,1.705,-0.0000336
51.38,534.09,0.3000000,1.705,-0.0000350
51.43,534.59,0.3000000,1.705,0.0000715
51.48,535.09,0.3000000,1.705,0.0000380
51.53,535.59,0.3000000,1.704,-0.0002538
51.58,536.09,0.3000000,1.704,-0.0000493
51.63,536.59,0.3000000,1.704,-0.0000100
51.68,537.091,0.3000000,1.704,-0.0002987
51.73,537.591,0.3000000,1.704,-0.0003649
51.78,538.091,0.3000000,1.704,-0.0002016
51.83,538.591,0.3000000,1.704,-0.0001272
51.88,539.091,0.3000000,1.704,0.0000086
51.93,539.591,0.3000000,1.704,-0.0001508
51.98,540.091,0.3000000,1.704,-0.0003216
52.03,540.591,0.3000000,1.704,-0.0003088
52.08,541.091,0.3000000,1.704,-0.0002329
52.13,541.591,0.3000000,1.704,-0.0001766
52.18,542.091,0.3000000,1.703,-0.0001408
52.23,542.592,0.3000000,1.703,-0.0003044
52.28,543.092,0.3000000,1.703,-0.0001865
52.33,543.592,0.3000000,1.703,-0.0000630
52.38,544.092,0.3000000,1.703,-0.0001982
52.43,544.592,0.3000000,1.703,-0.0000107
52.48,545.092,0.3000000,1.703,0.0000851
52.53,545.592,0.3000000,1.703,0.0001667
52.58,546.092,0.3000000,1.703,0.0000630
52.63,546.592,0.3000000,1.703,0.0000801
52.68,547.092,0.3000000,1.703,-0.0002101
52.73,547.592,0.3000000,1.703,-0.0002458
52.78,548.093,0.3000000,1.702,-0.0000937
52.83,548.593,0.3000000,1.702,-0.0001486
52.88,549.093,0.3000000,1.702,-0.0002018
52.93,549.593,0.3000000,1.702,-0.0003389
52.98,550.093,0.3000000,1.702,-0.0004350
53.03,550.593,0.3000000,1.702,-0.0001151
53.08,551.093,0.3000000,1.702,-0.0001315
53.13,551.593,0.3000000,1.702,-0.0003845
53.18,552.093,0.3000000,1.702,-0.0003303
53.23,552.593,0.3000000,1.702,-0.0004231
53.28,553.093,0.3000000,1.701,-0.0000993
53.33,553.593,0.3000000,1.701,-0.0001079
53.38,554.094,0.3000000,1.701,-0.0005713
53.43,554.594,0.3000000,1.701,-0.0003121
53.48,555.094,0.3000000,1.701,-0.0004206
53.52,555.594,0.3000000,1.701,-0.0002805
53.57,556.094,0.3000000,1.701,-0.0001028
53.62,556.594,0.3000000,1.701,-0.0004318
53.67,557.094,0.3000000,1.7,-0.0001769
53.72,557.594,0.3000000,1.7,-0.0001949
53.77,558.094,0.3000000,1.7,-0.0003554
53.82,558.594,0.2990000,1.7,-0.0001764
53.87,559.094,0.2990000,1.7,-0.0003257
53.92,559.595,0.2990000,1.7,-0.0001066
53.97,560.095,0.2990000,1.7,-0.0003506
54.02,560.595,0.2990000,1.7,-0.0001566
54.07,561.095,0.2990000,1.7,-0.0002588
54.12,561.595,0.2990000,1.699,-0.0004508
54.17,562.095,0.2990000,1.699,-0.0004245
54.22,562.595,0.2990000,1.699,-0.0003134
54.27,563.095,0.2990000,1.699,-0.0002075
54.32,563.595,0.2990000,1.699,-0.0001624
54.37,564.095,0.2990000,1.699,-0.0000522
54.42,564.595,0.2990000,1.699,-0.0000651
54.47,565.096,0.2990000,1.698,-0.0002374
54.52,565.596,0.2990000,1.698,-0.0001436
54.57,566.096,0.2990000,1.698,-0.0002523
54.62,566.596,0.2990000,1.698,-0.0004378
54.67,567.096,0.2990000,1.698,0.0000107
54.72,567.596,0.2990000,1.698,-0.0003320
54.77,568.096,0.2990000,1.698,-0.0002838
54.82,568.596,0.2990000,1.698,-0.0001494
54.87,569.096,0.2990000,1.698,-0.0002502
54.92,569.596,0.2990000,1.698,-0.0000479
54.97,570.096,0.2990000,1.697,-0.0004360
55.02,570.597,0.2990000,1.697,0.0000307
55.07,571.097,0.2990000,1.697,-0.0002401
55.12,571.597,0.2990000,1.697,-0.0000901
55.17,572.097,0.2990000,1.697,-0.0000436
55.22,572.597,0.2990000,1.697,-0.0000093
55.27,573.097,0.2990000,1.697,-0.0000772
55.32,573.597,0.2990000,1.697,-0.0002909
55.37,574.097,0.2990000,1.697,-0.0002609
55.42,574.597,0.2990000,1.697,-0.0001215
55.47,575.097,0.2990000,1.697,-0.0002874
55.52,575.597,0.2990000,1.697,-0.0002497
55.57,576.098,0.2990000,1.696,-0.0004210
55.62,576.598,0.2990000,1.696,-0.0000293
55.67,577.098,0.2990000,1.696,-0.0003792
55.72,577.598,0.2990000,1.696,-0.0004884
55.77,578.098,0.2990000,1.696,-0.0003125
55.82,578.598,0.2990000,1.696,-0.0003209
55.87,579.098,0.2990000,1.695,-0.0003638
55.92,579.598,0.2990000,1.695,-0.0006437
55.97,580.098,0.2990000,1.695,-0.0004135
56.02,580.598,0.2990000,1.695,-0.0002654
56.07,581.098,0.2990000,1.695,-0.0006568
56.12,581.598,0.2980000,1.694,-0.0006153
56.17,582.099,0.2980000,1.694,-0.0001982
56.22,582.599,0.2980000,1.694,-0.0003502
56.27,583.099,0.2980000,1.694,-0.0001966
56.32,583.599,0.2980000,1.694,-0.0003713
56.37,584.099,0.2980000,1.694,-0.0001532
56.42,584.599,0.2980000,1.694,-0.0002936
56.47,585.099,0.2980000,1.693,-0.0001209
56.52,585.599,0.2980000,1.693,-0.0003448
56.57,586.099,0.2980000,1.693,-0.0003634
56.62,586.599,0.2980000,1.693,-0.0005825
56.67,587.099,0.2980000,1.693,-0.0005679
56.72,587.6,0.2980000,1.692,-0.0005824
56.77,588.1,0.2980000,1.692,-0.0003692
56.82,588.6,0.2980000,1.692,-0.0005677
56.87,589.1,0.2980000,1.692,-0.0005295
56.92,589.6,0.2980000,1.691,-0.0007527
56.96,590,0.2980000,1.691,-0.0005688