File: R/rHDPE_App/app/www/Output/TGA/Condensed_Data/Resin4_2_.csv
0.9100000,30,13.439,100.036,0.0004033
0.9800000,30.5001,13.439,100.037,-0.0009546
1.04,31.0002,13.44,100.039,-0.0003849
1.1,31.5003,13.44,100.041,0.0001620
1.16,32.0004,13.44,100.042,0.0051705
1.21,32.5004,13.44,100.043,0.0040010
1.27,33.0005,13.44,100.044,-0.0017184
1.33,33.5006,13.44,100.045,0.0045374
1.38,34.0007,13.441,100.046,0.0013797
1.44,34.5008,13.441,100.047,0.0029900
1.49,35.0009,13.441,100.048,0.0026660
1.55,35.501,13.441,100.049,0.0027500
1.6,36.0011,13.441,100.05,0.0003981
1.66,36.5012,13.441,100.051,0.0030208
1.71,37.0013,13.441,100.051,-0.0002960
1.77,37.5013,13.441,100.052,0.0021140
1.82,38.0014,13.441,100.053,0.0022074
1.87,38.5015,13.442,100.053,0.0001469
1.93,39.0016,13.442,100.054,0.0031733
1.98,39.5017,13.442,100.055,0.0005846
2.03,40.0018,13.442,100.056,0.0003402
2.08,40.5019,13.442,100.056,0.0025224
2.14,41.002,13.442,100.057,0.0015489
2.19,41.5021,13.442,100.058,0.0008214
2.24,42.0021,13.442,100.059,0.0017848
2.3,42.5022,13.442,100.059,0.0021669
2.35,43.0023,13.442,100.06,0.0005291
2.4,43.5024,13.443,100.061,0.0004322
2.45,44.0025,13.443,100.061,0.0024470
2.51,44.5026,13.443,100.062,0.0001917
2.56,45.0027,13.443,100.063,0.0009098
2.61,45.5028,13.443,100.064,0.0017678
2.66,46.0029,13.443,100.064,0.0002381
2.71,46.5029,13.443,100.064,0.0009972
2.77,47.003,13.443,100.065,0.0022799
2.82,47.5031,13.443,100.066,0.0019490
2.87,48.0032,13.443,100.067,0.0021868
2.92,48.5033,13.443,100.068,0.0018533
2.98,49.0034,13.444,100.068,0.0004270
3.03,49.5035,13.444,100.069,0.0006161
3.08,50.0036,13.444,100.07,0.0019871
3.13,50.5037,13.444,100.071,0.0025523
3.18,51.0038,13.444,100.072,0.0015088
3.23,51.5038,13.444,100.072,0.0009415
3.29,52.0039,13.444,100.073,0.0002821
3.34,52.504,13.444,100.074,0.0003286
3.39,53.0041,13.444,100.074,0.0012660
3.44,53.5042,13.444,100.075,0.0017338
3.49,54.0043,13.445,100.076,0.0010295
3.54,54.5044,13.445,100.076,0.0010293
3.59,55.0045,13.445,100.077,0.0005142
3.64,55.5046,13.445,100.078,0.0007472
3.69,56.0046,13.445,100.078,0.0014938
3.74,56.5047,13.445,100.079,0.0013540
3.79,57.0048,13.445,100.08,0.0011661
3.85,57.5049,13.445,100.08,0.0013516
3.9,58.005,13.445,100.081,0.0015826
3.95,58.5051,13.445,100.081,0.0014413
4,59.0052,13.445,100.082,0.0014387
4.05,59.5053,13.446,100.083,0.0007884
4.1,60.0054,13.446,100.083,0.0014832
4.15,60.5054,13.446,100.084,0.0017151
4.2,61.0055,13.446,100.084,0.0007874
4.25,61.5056,13.446,100.085,0.0012963
4.3,62.0057,13.446,100.086,0.0010175
4.35,62.5058,13.446,100.086,0.0009712
4.4,63.0059,13.446,100.087,0.0002771
4.45,63.506,13.446,100.087,0.0004618
4.5,64.0061,13.446,100.088,0.0007849
4.55,64.5062,13.446,100.088,0.0004155
4.6,65.0063,13.446,100.089,0.0010154
4.65,65.5063,13.446,100.089,0.0007381
4.7,66.0064,13.446,100.09,0.0012910
4.76,66.5065,13.447,100.09,0.0010603
4.81,67.0066,13.447,100.091,0.0012902
4.86,67.5067,13.447,100.091,0.0009212
4.91,68.0068,13.447,100.092,0.0009670
4.96,68.5069,13.447,100.092,0.0009666
5.01,69.007,13.447,100.093,0.0008742
5.06,69.5071,13.447,100.093,0.0012878
5.11,70.0071,13.447,100.094,0.0008277
5.16,70.5072,13.447,100.094,0.0008736
5.21,71.0073,13.447,100.095,0.0013794
5.26,71.5074,13.447,100.095,0.0009192
5.31,72.0075,13.447,100.096,0.0008728
5.36,72.5076,13.447,100.096,0.0009176
5.41,73.0077,13.447,100.097,0.0005505
5.46,73.5078,13.447,100.097,0.0001834
5.51,74.0079,13.448,100.098,0.0006414
5.56,74.5079,13.448,100.098,0.0011007
5.61,75.008,13.448,100.099,0.0012382
5.66,75.5081,13.448,100.099,0.0005044
5.71,76.0082,13.448,100.099,0.0011916
5.76,76.5083,13.448,100.1,0.0005502
5.81,77.0084,13.448,100.1,0.0011919
5.86,77.5085,13.448,100.1,0.0009161
5.91,78.0086,13.448,100.101,0.0007791
5.96,78.5087,13.448,100.101,0.0015131
6.01,79.0088,13.448,100.101,0.0008703
6.06,79.5088,13.448,100.102,0.0006403
6.11,80.0089,13.448,100.102,0.0010983
6.16,80.509,13.448,100.102,0.0006868
6.21,81.0091,13.448,100.103,0.0006864
6.26,81.5092,13.448,100.103,0.0005950
6.31,82.0093,13.448,100.103,0.0002290
6.36,82.5094,13.448,100.104,0.0005503
6.41,83.0095,13.448,100.104,0.0008706
6.46,83.5096,13.448,100.104,0.0005952
6.51,84.0096,13.448,100.105,0.0007778
6.56,84.5097,13.449,100.105,0.0005487
6.61,85.0098,13.449,100.105,0.0010971
6.66,85.5099,13.449,100.106,-0.0003656
6.71,86.01,13.449,100.106,0.0006860
6.76,86.5101,13.449,100.106,0.0003202
6.81,87.0102,13.449,100.106,0.0004581
6.86,87.5103,13.449,100.107,0.0007343
6.91,88.0104,13.449,100.107,0.0001836
6.96,88.5104,13.449,100.107,0.0007798
7.01,89.0105,13.449,100.108,0.0002287
7.06,89.5106,13.449,100.108,0.0006854
7.11,90.0107,13.449,100.108,0.0010047
7.16,90.5108,13.449,100.108,0.0006846
7.21,91.0109,13.449,100.109,0.0004562
7.26,91.511,13.449,100.109,-0.0005018
7.31,92.0111,13.449,100.109,0.0001374
7.36,92.5112,13.449,100.109,0.0007774
7.41,93.0113,13.449,100.11,-0.0000457
7.46,93.5113,13.449,100.11,0.0004570
7.51,94.0114,13.449,100.11,0.0003655
7.56,94.5115,13.449,100.11,0.0007772
7.61,95.0116,13.449,100.11,0.0001832
7.66,95.5117,13.449,100.11,0.0005492
7.71,96.0118,13.449,100.111,0.0002743
7.76,96.5119,13.449,100.111,0.0004117
7.81,97.012,13.449,100.111,0.0007782
7.86,97.5121,13.449,100.111,0.0004131
7.91,98.0121,13.449,100.111,0.0008728
7.96,98.5122,13.449,100.111,0.0004129
8.01,99.0123,13.449,100.111,0.0000000
8.06,99.5124,13.449,100.112,-0.0000917
8.11,100.013,13.449,100.112,0.0004572
8.16,100.513,13.449,100.112,0.0000456
8.21,101.013,13.449,100.112,0.0005475
8.26,101.513,13.449,100.112,-0.0004103
8.31,102.013,13.449,100.112,0.0005023
8.36,102.513,13.449,100.112,0.0003653
8.41,103.013,13.449,100.112,0.0000914
8.46,103.513,13.449,100.112,-0.0000457
8.51,104.013,13.449,100.112,0.0002748
8.56,104.513,13.45,100.112,0.0005495
8.61,105.013,13.45,100.113,0.0004580
8.66,105.513,13.45,100.113,-0.0000001
8.71,106.014,13.45,100.113,0.0000000
8.76,106.514,13.45,100.113,0.0006416
8.81,107.014,13.45,100.113,0.0004126
8.86,107.514,13.45,100.113,0.0006417
8.91,108.014,13.45,100.113,0.0003664
8.96,108.514,13.45,100.113,0.0000917
9.01,109.014,13.45,100.113,0.0004583
9.06,109.514,13.45,100.113,0.0003209
9.11,110.014,13.45,100.113,0.0005961
9.16,110.514,13.45,100.113,0.0007804
9.21,111.014,13.45,100.113,0.0001833
9.26,111.515,13.45,100.113,0.0001832
9.31,112.015,13.45,100.113,-0.0002290
9.36,112.515,13.45,100.113,-0.0000000
9.41,113.015,13.45,100.113,-0.0000918
9.46,113.515,13.45,100.113,-0.0005952
9.51,114.015,13.45,100.113,-0.0002287
9.56,114.515,13.45,100.113,-0.0002284
9.61,115.015,13.45,100.113,-0.0006847
9.66,115.515,13.45,100.113,0.0000000
9.71,116.015,13.45,100.113,-0.0000000
9.76,116.515,13.45,100.113,-0.0000458
9.81,117.016,13.45,100.113,0.0000000
9.86,117.516,13.45,100.113,0.0003675
9.91,118.016,13.45,100.113,0.0003680
9.96,118.516,13.45,100.113,0.0000459
10.01,119.016,13.45,100.113,-0.0005951
10.06,119.516,13.45,100.113,0.0001374
10.11,120.016,13.45,100.113,-0.0002745
10.16,120.516,13.45,100.113,0.0002289
10.21,121.016,13.45,100.113,0.0002290
10.26,121.516,13.45,100.113,-0.0000000
10.31,122.016,13.45,100.113,0.0003668
10.36,122.517,13.45,100.113,-0.0000916
10.41,123.017,13.45,100.113,0.0001833
10.46,123.517,13.45,100.113,0.0001375
10.51,124.017,13.45,100.113,-0.0000459
10.56,124.517,13.45,100.113,-0.0001833
10.61,125.017,13.45,100.113,0.0002754
10.66,125.517,13.45,100.113,0.0003674
10.71,126.017,13.45,100.113,0.0001378
10.76,126.517,13.45,100.113,0.0002757
10.81,127.017,13.45,100.113,-0.0000459
10.86,127.517,13.45,100.114,0.0007808
10.91,128.018,13.45,100.114,-0.0001376
10.96,128.518,13.45,100.114,-0.0000000
11.01,129.018,13.45,100.114,0.0004590
11.06,129.518,13.45,100.114,0.0006891
11.11,130.018,13.45,100.115,0.0008267
11.16,130.518,13.45,100.115,0.0008725
11.21,131.018,13.45,100.115,0.0007797
11.26,131.518,13.45,100.115,0.0007800
11.31,132.018,13.45,100.116,0.0006423
11.36,132.518,13.45,100.116,0.0004128
11.41,133.018,13.45,100.116,0.0001835
11.46,133.518,13.45,100.116,-0.0000000
11.51,134.019,13.45,100.117,0.0005948
11.56,134.519,13.45,100.117,0.0003204
11.61,135.019,13.45,100.117,0.0005501
11.66,135.519,13.45,100.117,0.0003663
11.71,136.019,13.45,100.117,-0.0001374
11.76,136.519,13.45,100.117,0.0003671
11.81,137.019,13.45,100.118,0.0002759
11.86,137.519,13.45,100.118,0.0007363
11.92,138.019,13.45,100.118,0.0003219
11.97,138.519,13.45,100.118,0.0000913
12.02,139.019,13.45,100.118,0.0000000
12.06,139.52,13.45,100.118,-0.0004094
12.11,140.02,13.45,100.118,-0.0003641
12.16,140.52,13.45,100.118,0.0000455
12.21,141.02,13.45,100.117,-0.0011369
12.26,141.52,13.45,100.117,-0.0010010
12.31,142.02,13.45,100.117,-0.0005469
12.36,142.52,13.45,100.117,-0.0003190
12.41,143.02,13.45,100.116,-0.0005924
12.46,143.52,13.45,100.116,-0.0009130
12.51,144.02,13.45,100.115,-0.0012337
12.56,144.52,13.45,100.115,-0.0010509
12.61,145.021,13.45,100.114,-0.0017356
12.66,145.521,13.45,100.113,-0.0016438
12.71,146.021,13.449,100.112,-0.0021888
12.76,146.521,13.449,100.111,-0.0016877
12.81,147.021,13.449,100.11,-0.0023315
12.86,147.521,13.449,100.109,-0.0019665
12.91,148.021,13.449,100.108,-0.0021024
12.96,148.521,13.449,100.107,-0.0019117
13.01,149.021,13.449,100.106,-0.0017730
13.06,149.521,13.449,100.105,-0.0014541
13.11,150.021,13.448,100.105,-0.0012276
13.16,150.522,13.448,100.104,-0.0011846
13.21,151.022,13.448,100.103,-0.0012764
13.26,151.522,13.448,100.103,-0.0014610
13.31,152.022,13.448,100.102,-0.0008694
13.36,152.522,13.448,100.101,-0.0013728
13.41,153.022,13.448,100.101,-0.0008749
13.46,153.522,13.448,100.1,-0.0007845
13.51,154.022,13.448,100.1,-0.0006930
13.56,154.522,13.448,100.099,-0.0004617
13.61,155.022,13.448,100.099,-0.0008766
13.66,155.522,13.448,100.099,-0.0005990
13.71,156.023,13.448,100.098,-0.0008285
13.76,156.523,13.448,100.098,-0.0010573
13.81,157.023,13.448,100.098,-0.0005946
13.86,157.523,13.447,100.097,-0.0004570
13.91,158.023,13.447,100.097,-0.0001829
13.96,158.523,13.447,100.097,-0.0008233
14.01,159.023,13.447,100.096,-0.0006871
14.06,159.523,13.447,100.096,-0.0005959
14.11,160.023,13.447,100.096,-0.0005046
14.16,160.523,13.447,100.095,-0.0006886
14.21,161.023,13.447,100.095,-0.0005975
14.26,161.523,13.447,100.095,-0.0009187
14.31,162.024,13.447,100.094,-0.0005990
14.36,162.524,13.447,100.094,-0.0005992
14.41,163.024,13.447,100.094,-0.0005994
14.47,163.524,13.447,100.093,-0.0004134
14.52,164.024,13.447,100.093,-0.0003221
14.57,164.524,13.447,100.093,-0.0010125
14.62,165.024,13.447,100.093,-0.0007816
14.67,165.524,13.447,100.092,-0.0005951
14.72,166.024,13.447,100.092,-0.0005941
14.77,166.524,13.447,100.092,-0.0011867
14.82,167.024,13.447,100.091,-0.0006848
14.87,167.525,13.447,100.091,-0.0006404
14.92,168.025,13.447,100.091,-0.0008236
14.97,168.525,13.447,100.09,-0.0011890
15.02,169.025,13.446,100.09,-0.0005514
15.07,169.525,13.446,100.09,-0.0011042
15.12,170.025,13.446,100.089,-0.0007820
15.17,170.525,13.446,100.089,-0.0010547
15.22,171.025,13.446,100.088,-0.0008240
15.27,171.525,13.446,100.088,-0.0009600
15.32,172.025,13.446,100.088,-0.0002749
15.37,172.525,13.446,100.087,-0.0004593
15.42,173.026,13.446,100.087,-0.0006892
15.47,173.526,13.446,100.087,-0.0005969
15.52,174.026,13.446,100.086,-0.0007772
15.57,174.526,13.446,100.086,-0.0004569
15.62,175.026,13.446,100.086,-0.0007766
15.67,175.526,13.446,100.085,-0.0010499
15.72,176.026,13.446,100.085,-0.0005948
15.77,176.526,13.446,100.085,-0.0007809
15.82,177.026,13.446,100.084,-0.0013732
15.87,177.526,13.446,100.084,-0.0004127
15.92,178.026,13.446,100.083,-0.0005500
15.97,178.527,13.446,100.083,-0.0008249
16.02,179.027,13.445,100.083,-0.0004585
16.07,179.527,13.445,100.082,-0.0005040
16.12,180.027,13.445,100.082,-0.0007792
16.17,180.527,13.445,100.081,-0.0007337
16.22,181.027,13.445,100.081,-0.0005501
16.27,181.527,13.445,100.08,-0.0005956
16.32,182.027,13.445,100.08,-0.0003208
16.37,182.527,13.445,100.079,-0.0006422
16.42,183.027,13.445,100.079,-0.0012365
16.47,183.527,13.445,100.078,-0.0010081
16.52,184.028,13.445,100.078,-0.0009162
16.57,184.528,13.445,100.077,-0.0014184
16.62,185.028,13.445,100.077,-0.0010075
16.67,185.528,13.445,100.076,-0.0007789
16.72,186.028,13.445,100.076,-0.0010079
16.77,186.528,13.445,100.075,-0.0011004
16.82,187.028,13.444,100.075,-0.0011916
16.87,187.528,13.444,100.074,-0.0011466
16.92,188.028,13.444,100.074,-0.0011004
16.97,188.528,13.444,100.073,-0.0011918
17.02,189.028,13.444,100.072,-0.0008712
17.07,189.528,13.444,100.072,-0.0008714
17.12,190.029,13.444,100.071,-0.0011922
17.17,190.529,13.444,100.071,-0.0011929
17.22,191.029,13.444,100.07,-0.0013300
17.27,191.529,13.444,100.07,-0.0012833
17.32,192.029,13.444,100.069,-0.0010533
17.37,192.529,13.444,100.068,-0.0009163
17.42,193.029,13.444,100.068,-0.0010992
17.47,193.529,13.443,100.067,-0.0011444
17.52,194.029,13.443,100.067,-0.0012816
17.57,194.529,13.443,100.066,-0.0010531
17.62,195.029,13.443,100.066,-0.0011445
17.67,195.53,13.443,100.065,-0.0013275
17.72,196.03,13.443,100.065,-0.0012830
17.77,196.53,13.443,100.064,-0.0011902
17.82,197.03,13.443,100.063,-0.0017392
17.87,197.53,13.443,100.063,-0.0016029
17.92,198.03,13.443,100.062,-0.0018786
17.97,198.53,13.443,100.061,-0.0013753
18.02,199.03,13.443,100.061,-0.0013751
18.07,199.53,13.443,100.06,-0.0016499
18.12,200.03,13.442,100.06,-0.0012374
18.17,200.53,13.442,100.059,-0.0013284
18.22,201.031,13.442,100.058,-0.0013294
18.27,201.531,13.442,100.058,-0.0013749
18.32,202.031,13.442,100.057,-0.0013280
18.37,202.531,13.442,100.056,-0.0013750
18.42,203.031,13.442,100.055,-0.0019706
18.47,203.531,13.442,100.055,-0.0013748
18.52,204.031,13.442,100.054,-0.0013746
18.57,204.531,13.442,100.053,-0.0016488
18.62,205.031,13.441,100.053,-0.0016461
18.67,205.531,13.441,100.052,-0.0016011
18.72,206.031,13.441,100.051,-0.0016019
18.77,206.532,13.441,100.05,-0.0019689
18.82,207.032,13.441,100.049,-0.0016957
18.87,207.532,13.441,100.049,-0.0020614
18.92,208.032,13.441,100.048,-0.0016044
18.97,208.532,13.441,100.047,-0.0014675
19.02,209.032,13.441,100.046,-0.0019259
19.07,209.532,13.441,100.046,-0.0014672
19.12,210.032,13.44,100.045,-0.0016969
19.17,210.532,13.44,100.044,-0.0015585
19.22,211.032,13.44,100.043,-0.0016030
19.27,211.532,13.44,100.042,-0.0015103
19.32,212.033,13.44,100.042,-0.0011905
19.37,212.533,13.44,100.041,-0.0016946
19.42,213.033,13.44,100.04,-0.0014201
19.47,213.533,13.44,100.039,-0.0015120
19.52,214.033,13.44,100.038,-0.0016966
19.57,214.533,13.439,100.038,-0.0019256
19.62,215.033,13.439,100.037,-0.0018332
19.67,215.533,13.439,100.036,-0.0013745
19.72,216.033,13.439,100.035,-0.0016965
19.77,216.533,13.439,100.034,-0.0015589
19.82,217.033,13.439,100.033,-0.0016023
19.87,217.533,13.439,100.033,-0.0016961
19.92,218.034,13.439,100.032,-0.0016024
19.97,218.534,13.439,100.031,-0.0016036
20.02,219.034,13.438,100.03,-0.0015124
20.07,219.534,13.438,100.029,-0.0016496
20.12,220.034,13.438,100.028,-0.0017865
20.17,220.534,13.438,100.027,-0.0017407
20.22,221.034,13.438,100.026,-0.0018337
20.27,221.534,13.438,100.025,-0.0017411
20.32,222.034,13.438,100.025,-0.0019231
20.37,222.534,13.438,100.024,-0.0014207
20.42,223.034,13.437,100.023,-0.0022462
20.47,223.535,13.437,100.022,-0.0019261
20.52,224.035,13.437,100.021,-0.0018804
20.57,224.535,13.437,100.02,-0.0018344
20.62,225.035,13.437,100.019,-0.0019711
20.67,225.535,13.437,100.018,-0.0017436
20.72,226.035,13.437,100.017,-0.0020171
20.77,226.535,13.437,100.016,-0.0011447
20.82,227.035,13.437,100.016,-0.0016941
20.87,227.535,13.436,100.015,-0.0014663
20.92,228.035,13.436,100.014,-0.0019234
20.97,228.535,13.436,100.013,-0.0016494
21.02,229.036,13.436,100.012,-0.0017410
21.07,229.536,13.436,100.011,-0.0020616
21.12,230.036,13.436,100.01,-0.0025160
21.17,230.536,13.436,100.009,-0.0024256
21.22,231.036,13.436,100.008,-0.0021536
21.27,231.536,13.435,100.007,-0.0016488
21.32,232.036,13.435,100.006,-0.0019252
21.37,232.536,13.435,100.005,-0.0022002
21.42,233.036,13.435,100.004,-0.0021544
21.47,233.536,13.435,100.003,-0.0023366
21.52,234.036,13.435,100.003,-0.0015592
21.57,234.537,13.435,100.002,-0.0021082
21.62,235.037,13.434,100.001,-0.0025165
21.67,235.537,13.434,100,-0.0023369
21.72,236.037,13.434,99.999,-0.0020158
21.77,236.537,13.434,99.998,-0.0024696
21.82,237.037,13.434,99.996,-0.0019237
21.87,237.537,13.434,99.995,-0.0024296
21.92,238.037,13.434,99.994,-0.0027951
21.97,238.537,13.433,99.993,-0.0017418
22.02,239.037,13.433,99.992,-0.0021540
22.07,239.537,13.433,99.991,-0.0022919
22.12,240.038,13.433,99.99,-0.0014204
22.17,240.538,13.433,99.989,-0.0017862
22.22,241.038,13.433,99.988,-0.0021091
22.27,241.538,13.433,99.987,-0.0019254
22.32,242.038,13.432,99.986,-0.0020625
22.37,242.538,13.432,99.985,-0.0019248
22.42,243.038,13.432,99.983,-0.0022426
22.47,243.538,13.432,99.982,-0.0022436
22.52,244.038,13.432,99.981,-0.0019248
22.57,244.538,13.432,99.98,-0.0023825
22.62,245.038,13.432,99.979,-0.0025202
22.67,245.538,13.431,99.978,-0.0022925
22.72,246.039,13.431,99.977,-0.0020169
22.77,246.539,13.431,99.976,-0.0026569
22.82,247.039,13.431,99.974,-0.0024263
22.87,247.539,13.431,99.973,-0.0022898
22.92,248.039,13.431,99.972,-0.0022892
22.97,248.539,13.43,99.971,-0.0027853
23.02,249.039,13.43,99.969,-0.0023794
23.07,249.539,13.43,99.968,-0.0029757
23.12,250.039,13.43,99.967,-0.0035208
23.17,250.539,13.43,99.966,-0.0025195
23.22,251.039,13.43,99.965,-0.0022898
23.27,251.54,13.429,99.963,-0.0028401
23.32,252.04,13.429,99.962,-0.0027483
23.37,252.54,13.429,99.961,-0.0024294
23.42,253.04,13.429,99.96,-0.0025206
23.47,253.54,13.429,99.959,-0.0026588
23.53,254.04,13.429,99.957,-0.0024263
23.58,254.54,13.429,99.956,-0.0025183
23.63,255.04,13.428,99.955,-0.0033818
23.68,255.54,13.428,99.953,-0.0023358
23.73,256.04,13.428,99.952,-0.0022440
23.78,256.54,13.428,99.951,-0.0030689
23.83,257.041,13.428,99.949,-0.0025655
23.88,257.541,13.427,99.948,-0.0026557
23.93,258.041,13.427,99.947,-0.0028829
23.98,258.541,13.427,99.945,-0.0026084
24.03,259.041,13.427,99.944,-0.0027473
24.08,259.541,13.427,99.943,-0.0025206
24.13,260.041,13.427,99.941,-0.0027483
24.18,260.541,13.426,99.94,-0.0027508
24.23,261.041,13.426,99.938,-0.0031634
24.28,261.541,13.426,99.937,-0.0028899
24.33,262.041,13.426,99.935,-0.0026138
24.38,262.542,13.426,99.934,-0.0028872
24.43,263.042,13.425,99.932,-0.0029331
24.48,263.542,13.425,99.931,-0.0027982
24.53,264.042,13.425,99.93,-0.0028899
24.58,264.542,13.425,99.928,-0.0027030
24.63,265.042,13.425,99.927,-0.0030695
24.68,265.542,13.424,99.925,-0.0032051
24.73,266.042,13.424,99.923,-0.0028415
24.78,266.542,13.424,99.922,-0.0030688
24.83,267.042,13.424,99.92,-0.0030678
24.88,267.542,13.424,99.919,-0.0032051
24.93,268.043,13.423,99.917,-0.0031136
24.98,268.543,13.423,99.916,-0.0031593
25.03,269.043,13.423,99.914,-0.0032949
25.08,269.543,13.423,99.913,-0.0032539
25.13,270.043,13.422,99.911,-0.0034372
25.18,270.543,13.422,99.909,-0.0033450
25.23,271.043,13.422,99.908,-0.0031610
25.28,271.543,13.422,99.906,-0.0037477
25.33,272.043,13.422,99.904,-0.0038834
25.38,272.543,13.421,99.903,-0.0032051
25.43,273.043,13.421,99.901,-0.0031564
25.48,273.543,13.421,99.899,-0.0034341
25.53,274.044,13.421,99.898,-0.0030695
25.58,274.544,13.42,99.896,-0.0035747
25.63,275.044,13.42,99.894,-0.0033016
25.68,275.544,13.42,99.892,-0.0036205
25.73,276.044,13.42,99.891,-0.0037579
25.78,276.544,13.419,99.889,-0.0034372
25.83,277.044,13.419,99.887,-0.0044252
25.88,277.544,13.419,99.885,-0.0038321
25.93,278.044,13.419,99.883,-0.0048015
25.98,278.544,13.418,99.881,-0.0041246
26.03,279.044,13.418,99.879,-0.0041743
26.08,279.545,13.418,99.877,-0.0043578
26.13,280.045,13.418,99.875,-0.0039027
26.18,280.545,13.417,99.873,-0.0041728
26.23,281.045,13.417,99.871,-0.0048993
26.28,281.545,13.417,99.869,-0.0039857
26.33,282.045,13.417,99.867,-0.0043459
26.38,282.545,13.416,99.865,-0.0042125
26.43,283.045,13.416,99.863,-0.0042125
26.48,283.545,13.416,99.861,-0.0038017
26.53,284.045,13.415,99.859,-0.0045804
26.58,284.545,13.415,99.856,-0.0047222
26.63,285.046,13.415,99.854,-0.0044390
26.68,285.546,13.415,99.852,-0.0046721
26.73,286.046,13.414,99.85,-0.0046313
26.78,286.546,13.414,99.848,-0.0049881
26.83,287.046,13.414,99.845,-0.0044013
26.88,287.546,13.413,99.843,-0.0043136
26.93,288.046,13.413,99.841,-0.0049065
26.98,288.546,13.413,99.838,-0.0045371
27.03,289.046,13.412,99.836,-0.0043932
27.08,289.546,13.412,99.834,-0.0049333
27.13,290.046,13.412,99.831,-0.0043379
27.18,290.547,13.411,99.829,-0.0049726
27.23,291.047,13.411,99.826,-0.0049270
27.28,291.547,13.411,99.824,-0.0048033
27.33,292.047,13.41,99.821,-0.0049496
27.38,292.547,13.41,99.819,-0.0050533
27.43,293.047,13.41,99.816,-0.0053699
27.48,293.547,13.409,99.813,-0.0052312
27.53,294.047,13.409,99.811,-0.0049010
27.58,294.547,13.409,99.808,-0.0055383
27.63,295.047,13.408,99.805,-0.0053700
27.68,295.547,13.408,99.803,-0.0054228
27.73,296.048,13.408,99.8,-0.0055096
27.78,296.548,13.407,99.797,-0.0060852
27.83,297.048,13.407,99.795,-0.0058182
27.88,297.548,13.406,99.792,-0.0053950
27.93,298.048,13.406,99.789,-0.0063552
27.98,298.548,13.406,99.786,-0.0057286
28.03,299.048,13.405,99.783,-0.0059142
28.08,299.548,13.405,99.78,-0.0062295
28.13,300.048,13.405,99.778,-0.0058150
28.18,300.548,13.404,99.774,-0.0062638
28.23,301.048,13.404,99.772,-0.0060015
28.28,301.548,13.403,99.768,-0.0055434
28.33,302.049,13.403,99.765,-0.0062776
28.38,302.549,13.402,99.762,-0.0059119
28.43,303.049,13.402,99.759,-0.0064185
28.48,303.549,13.402,99.756,-0.0067358
28.53,304.049,13.401,99.753,-0.0065441
28.58,304.549,13.401,99.749,-0.0068518
28.63,305.049,13.4,99.746,-0.0068186
28.68,305.549,13.4,99.743,-0.0063633
28.73,306.049,13.399,99.74,-0.0071795
28.78,306.549,13.399,99.736,-0.0069102
28.83,307.049,13.399,99.733,-0.0066702
28.88,307.55,13.398,99.729,-0.0067087
28.93,308.05,13.398,99.726,-0.0062580
28.98,308.55,13.397,99.723,-0.0070867
29.03,309.05,13.397,99.719,-0.0069572
29.08,309.55,13.396,99.716,-0.0065476
29.13,310.05,13.396,99.712,-0.0075188
29.18,310.55,13.395,99.708,-0.0073314
29.23,311.05,13.395,99.705,-0.0066514
29.28,311.55,13.394,99.701,-0.0078440
29.33,312.05,13.394,99.697,-0.0070772
29.38,312.55,13.393,99.694,-0.0066200
29.43,313.051,13.393,99.69,-0.0073894
29.48,313.551,13.392,99.686,-0.0070145
29.53,314.051,13.392,99.683,-0.0075938
29.58,314.551,13.391,99.679,-0.0075827
29.63,315.051,13.391,99.675,-0.0075839
29.68,315.551,13.39,99.671,-0.0076270
29.73,316.051,13.39,99.668,-0.0076050
29.78,316.551,13.389,99.664,-0.0085197
29.83,317.051,13.389,99.66,-0.0076176
29.88,317.551,13.388,99.656,-0.0079714
29.93,318.051,13.388,99.652,-0.0078485
29.98,318.552,13.387,99.648,-0.0083823
30.03,319.052,13.387,99.644,-0.0083441
30.08,319.552,13.386,99.64,-0.0076049
30.13,320.052,13.385,99.636,-0.0083760
30.18,320.552,13.385,99.632,-0.0081914
30.23,321.052,13.384,99.628,-0.0086837
30.28,321.552,13.384,99.623,-0.0082418
30.33,322.052,13.383,99.619,-0.0081088
30.38,322.552,13.383,99.615,-0.0084341
30.43,323.052,13.382,99.611,-0.0082875
30.48,323.552,13.382,99.607,-0.0088370
30.53,324.053,13.381,99.603,-0.0085275
30.58,324.553,13.38,99.598,-0.0093034
30.63,325.053,13.38,99.594,-0.0082569
30.68,325.553,13.379,99.59,-0.0087960
30.73,326.053,13.379,99.586,-0.0089286
30.78,326.553,13.378,99.581,-0.0086081
30.83,327.053,13.378,99.577,-0.0089123
30.88,327.553,13.377,99.573,-0.0084095
30.93,328.053,13.376,99.568,-0.0091507
30.98,328.553,13.376,99.564,-0.0086634
31.03,329.053,13.375,99.56,-0.0090152
31.08,329.553,13.375,99.555,-0.0092864
31.13,330.054,13.374,99.551,-0.0085211
31.18,330.554,13.373,99.546,-0.0090235
31.23,331.054,13.373,99.542,-0.0086996
31.28,331.554,13.372,99.538,-0.0086160
31.33,332.054,13.372,99.533,-0.0087060
31.38,332.554,13.371,99.529,-0.0086128
31.43,333.054,13.371,99.525,-0.0089384
31.48,333.554,13.37,99.52,-0.0088909
31.53,334.054,13.369,99.516,-0.0089694
31.58,334.554,13.369,99.511,-0.0086033
31.63,335.054,13.368,99.507,-0.0090709
31.68,335.555,13.368,99.503,-0.0087502
31.73,336.055,13.367,99.498,-0.0090693
31.78,336.555,13.366,99.494,-0.0092914
31.83,337.055,13.366,99.49,-0.0089777
31.88,337.555,13.365,99.485,-0.0088909
31.93,338.055,13.365,99.481,-0.0080172
31.98,338.555,13.364,99.477,-0.0093286
32.03,339.055,13.363,99.472,-0.0087703
32.08,339.555,13.363,99.468,-0.0088665
32.13,340.055,13.362,99.463,-0.0089154
32.18,340.555,13.362,99.459,-0.0089579
32.23,341.056,13.361,99.455,-0.0086837
32.28,341.556,13.361,99.45,-0.0092812
32.33,342.056,13.36,99.446,-0.0087423
32.38,342.556,13.359,99.442,-0.0087487
32.43,343.056,13.359,99.438,-0.0085275
32.48,343.556,13.358,99.433,-0.0088025
32.53,344.056,13.358,99.429,-0.0086239
32.58,344.556,13.357,99.425,-0.0087454
32.63,345.056,13.357,99.421,-0.0082875
32.68,345.556,13.356,99.417,-0.0085165
32.73,346.056,13.355,99.412,-0.0084660
32.78,346.557,13.355,99.408,-0.0076993
32.83,347.057,13.354,99.404,-0.0082905
32.88,347.557,13.354,99.4,-0.0084249
32.93,348.057,13.353,99.396,-0.0081931
32.98,348.557,13.353,99.392,-0.0086507
33.03,349.057,13.352,99.388,-0.0078268
33.08,349.557,13.352,99.384,-0.0078784
33.13,350.057,13.351,99.379,-0.0086996
33.18,350.557,13.35,99.375,-0.0080542
33.23,351.057,13.35,99.371,-0.0082343
33.28,351.557,13.349,99.367,-0.0076035
33.33,352.058,13.349,99.363,-0.0082387
33.38,352.558,13.348,99.36,-0.0080557
33.43,353.058,13.348,99.356,-0.0078254
33.48,353.558,13.347,99.352,-0.0076494
33.53,354.058,13.347,99.348,-0.0080999
33.58,354.558,13.346,99.344,-0.0082859
33.63,355.058,13.346,99.34,-0.0082019
33.68,355.558,13.345,99.336,-0.0078797
33.73,356.058,13.345,99.332,-0.0077424
33.78,356.558,13.344,99.328,-0.0084279
33.83,357.058,13.344,99.324,-0.0080586
33.88,357.558,13.343,99.32,-0.0081855
33.93,358.059,13.342,99.316,-0.0083715
33.98,358.559,13.342,99.312,-0.0080070
34.03,359.059,13.341,99.308,-0.0081885
34.08,359.559,13.341,99.304,-0.0083243
34.13,360.059,13.34,99.3,-0.0083333
34.18,360.559,13.34,99.296,-0.0080128
34.23,361.059,13.339,99.292,-0.0080571
34.28,361.559,13.339,99.288,-0.0082906
34.33,362.059,13.338,99.284,-0.0080542
34.38,362.559,13.338,99.28,-0.0079670
34.43,363.059,13.337,99.276,-0.0082463
34.48,363.56,13.337,99.272,-0.0078855
34.53,364.06,13.336,99.268,-0.0079256
34.58,364.56,13.336,99.264,-0.0083287
34.63,365.06,13.335,99.26,-0.0083791
34.68,365.56,13.334,99.256,-0.0078369
34.73,366.06,13.334,99.252,-0.0083303
34.78,366.56,13.333,99.248,-0.0080557
34.83,367.06,13.333,99.244,-0.0080586
34.88,367.56,13.332,99.239,-0.0081960
34.93,368.06,13.332,99.235,-0.0079212
34.98,368.56,13.331,99.231,-0.0083868
35.03,369.061,13.331,99.227,-0.0080631
35.08,369.561,13.33,99.223,-0.0085290
35.13,370.061,13.329,99.218,-0.0084357
35.18,370.561,13.329,99.214,-0.0085274
35.23,371.061,13.328,99.21,-0.0086965
35.28,371.561,13.328,99.205,-0.0088288
35.33,372.061,13.327,99.201,-0.0085133
35.38,372.561,13.326,99.196,-0.0090037
35.43,373.061,13.326,99.192,-0.0090901
35.48,373.561,13.325,99.187,-0.0097877
35.53,374.061,13.325,99.182,-0.0094641
35.58,374.562,13.324,99.178,-0.0098316
35.63,375.062,13.323,99.173,-0.0095767
35.68,375.562,13.323,99.168,-0.0093864
35.73,376.062,13.322,99.163,-0.0099707
35.78,376.562,13.321,99.158,-0.0099781
35.83,377.062,13.321,99.153,-0.0098938
35.88,377.562,13.32,99.148,-0.0103480
35.93,378.062,13.319,99.143,-0.0108934
35.98,378.562,13.319,99.138,-0.0102966
36.03,379.062,13.318,99.133,-0.0108099
36.08,379.562,13.317,99.127,-0.0108417
36.13,380.063,13.316,99.122,-0.0113553
36.18,380.563,13.316,99.116,-0.0113927
36.23,381.063,13.315,99.111,-0.0118895
36.28,381.563,13.314,99.105,-0.0115237
36.33,382.063,13.313,99.099,-0.0119005
36.38,382.563,13.313,99.093,-0.0122643
36.43,383.063,13.312,99.087,-0.0124473
36.48,383.563,13.311,99.081,-0.0127406
36.53,384.063,13.31,99.074,-0.0127841
36.58,384.563,13.309,99.068,-0.0133364
36.63,385.063,13.308,99.062,-0.0130614
36.68,385.563,13.307,99.055,-0.0138278
36.73,386.064,13.307,99.048,-0.0137871
36.78,386.564,13.306,99.041,-0.0143315
36.83,387.064,13.305,99.034,-0.0142857
36.88,387.564,13.304,99.027,-0.0144556
36.93,388.064,13.303,99.02,-0.0148216
36.98,388.564,13.302,99.013,-0.0146062
37.03,389.064,13.301,99.005,-0.0152818
37.08,389.564,13.3,98.998,-0.0151418
37.13,390.064,13.299,98.99,-0.0156050
37.18,390.564,13.298,98.982,-0.0162088
37.23,391.064,13.297,98.974,-0.0164286
37.28,391.565,13.295,98.965,-0.0162028
37.33,392.065,13.294,98.957,-0.0162178
37.38,392.565,13.293,98.949,-0.0167643
37.43,393.065,13.292,98.94,-0.0166118
37.48,393.565,13.291,98.932,-0.0173535
37.53,394.065,13.29,98.923,-0.0176643
37.58,394.565,13.288,98.914,-0.0180695
37.63,395.065,13.287,98.904,-0.0188645
37.68,395.565,13.286,98.895,-0.0188714
37.73,396.065,13.285,98.886,-0.0195620
37.78,396.565,13.283,98.876,-0.0199744
37.83,397.066,13.282,98.866,-0.0203297
37.88,397.566,13.281,98.856,-0.0200750
37.93,398.066,13.279,98.845,-0.0209895
37.98,398.566,13.278,98.835,-0.0209781
38.03,399.066,13.276,98.824,-0.0212717
38.08,399.566,13.275,98.813,-0.0224071
38.13,400.066,13.273,98.802,-0.0232601
38.18,400.566,13.272,98.791,-0.0233059
38.23,401.066,13.27,98.779,-0.0237507
38.28,401.566,13.269,98.767,-0.0241669
38.33,402.066,13.267,98.755,-0.0250686
38.38,402.567,13.265,98.742,-0.0251006
38.43,403.067,13.264,98.73,-0.0255812
38.48,403.567,13.262,98.717,-0.0267302
38.53,404.067,13.26,98.703,-0.0267857
38.58,404.567,13.258,98.69,-0.0277168
38.63,405.067,13.256,98.676,-0.0285818
38.68,405.567,13.255,98.661,-0.0295330
38.73,406.067,13.253,98.646,-0.0300202
38.78,406.567,13.25,98.631,-0.0309755
38.83,407.067,13.248,98.615,-0.0319304
38.88,407.567,13.246,98.599,-0.0331198
38.93,408.068,13.244,98.583,-0.0338641
38.98,408.568,13.242,98.566,-0.0341846
39.03,409.068,13.239,98.548,-0.0351784
39.08,409.568,13.237,98.53,-0.0361523
39.13,410.068,13.234,98.512,-0.0371337
39.18,410.568,13.232,98.493,-0.0383452
39.23,411.068,13.229,98.474,-0.0391941
39.28,411.568,13.227,98.454,-0.0405071
39.33,412.068,13.224,98.433,-0.0413008
39.38,412.568,13.221,98.412,-0.0429094
39.43,413.068,13.218,98.391,-0.0440772
39.48,413.568,13.215,98.368,-0.0459707
39.53,414.069,13.212,98.345,-0.0467033
39.58,414.569,13.209,98.321,-0.0482897
39.63,415.069,13.206,98.297,-0.0495245
39.68,415.569,13.202,98.272,-0.0510055
39.73,416.069,13.199,98.246,-0.0527422
39.78,416.569,13.195,98.22,-0.0540676
39.83,417.069,13.192,98.192,-0.0561243
39.88,417.569,13.188,98.163,-0.0579989
39.93,418.069,13.184,98.134,-0.0601885
39.98,418.569,13.18,98.103,-0.0623396
40.03,419.069,13.175,98.072,-0.0644023
40.08,419.57,13.171,98.039,-0.0666117
40.13,420.07,13.166,98.005,-0.0690018
40.18,420.57,13.162,97.97,-0.0722324
40.23,421.07,13.157,97.933,-0.0742637
40.28,421.57,13.152,97.894,-0.0784081
40.33,422.07,13.146,97.853,-0.0819303
40.38,422.57,13.14,97.809,-0.0922233
40.43,423.07,13.134,97.76,-0.1022420
40.48,423.57,13.126,97.706,-0.1160080
40.53,424.07,13.119,97.649,-0.1235810
40.58,424.57,13.11,97.587,-0.1339430
40.63,425.071,13.101,97.52,-0.1362430
40.68,425.571,13.092,97.449,-0.1490860
40.73,426.071,13.082,97.375,-0.1504930
40.78,426.571,13.071,97.295,-0.1690000
40.83,427.071,13.06,97.212,-0.1680260
40.88,427.571,13.048,97.127,-0.1778340
40.93,428.071,13.037,97.04,-0.1758900
40.98,428.571,13.024,96.949,-0.1858160
41.03,429.071,13.012,96.853,-0.1926930
41.08,429.571,12.999,96.756,-0.1973880
41.13,430.071,12.985,96.655,-0.2069970
41.18,430.572,12.971,96.55,-0.2134160
41.23,431.072,12.956,96.44,-0.2304490
41.28,431.572,12.941,96.327,-0.2358520
41.33,432.072,12.925,96.208,-0.2563620
41.38,432.572,12.908,96.082,-0.2590080
41.43,433.072,12.891,95.952,-0.2613860
41.48,433.572,12.873,95.819,-0.2688470
41.53,434.072,12.854,95.681,-0.2841120
41.58,434.572,12.835,95.538,-0.2904520
41.63,435.072,12.814,95.385,-0.3109070
41.68,435.572,12.793,95.226,-0.3280800
41.73,436.073,12.771,95.06,-0.3364030
41.78,436.573,12.747,94.885,-0.3508510
41.83,437.073,12.724,94.71,-0.3486730
41.88,437.573,12.7,94.532,-0.3621430
41.93,438.073,12.675,94.345,-0.3749090
41.98,438.573,12.649,94.151,-0.4005950
42.03,439.073,12.622,93.95,-0.4015580
42.08,439.573,12.593,93.739,-0.4358160
42.13,440.073,12.566,93.533,-0.4115820
42.18,440.573,12.538,93.324,-0.4158880
42.23,441.073,12.51,93.117,-0.4125800
42.28,441.573,12.48,92.899,-0.4503900
42.33,442.074,12.448,92.655,-0.5263610
42.38,442.574,12.413,92.398,-0.4621690
42.43,443.074,12.38,92.151,-0.4259700
42.48,443.574,12.344,91.883,-0.5391260
42.53,444.074,12.305,91.594,-0.6286030
42.58,444.574,12.261,91.269,-0.6828140
42.63,445.074,12.214,90.916,-0.7576050
42.68,445.574,12.164,90.541,-0.7584860
42.73,446.074,12.116,90.185,-0.6970240
42.78,446.574,12.068,89.83,-0.7735160
42.83,447.074,12.015,89.436,-0.8059410
42.88,447.575,11.957,88.999,-0.9962840
42.93,448.075,11.899,88.571,-0.8348480
42.98,448.575,11.839,88.128,-0.9629120
43.03,449.075,11.775,87.648,-0.9302520
43.08,449.575,11.711,87.175,-0.9697930
43.13,450.075,11.646,86.685,-0.9842790
43.18,450.575,11.575,86.161,-1.07717
43.23,451.075,11.499,85.597,-1.17438
43.28,451.575,11.427,85.058,-1.06437
43.33,452.075,11.35,84.484,-1.22784
43.38,452.575,11.265,83.85,-1.27495
43.43,453.076,11.177,83.197,-1.18739
43.48,453.576,11.089,82.542,-1.38559
43.53,454.076,10.996,81.848,-1.23342
43.58,454.576,10.907,81.189,-1.47157
43.63,455.076,10.801,80.401,-1.50883
43.68,455.576,10.703,79.665,-1.60309
43.73,456.076,10.591,78.833,-1.61705
43.78,456.576,10.481,78.016,-1.85821
43.83,457.076,10.363,77.139,-1.63913
43.88,457.576,10.249,76.286,-1.83378
43.93,458.076,10.127,75.378,-1.73643
43.98,458.577,9.997,74.415,-1.93745
44.03,459.077,9.867,73.449,-2.11877
44.08,459.577,9.73,72.423,-1.96784
44.13,460.077,9.59,71.384,-2.3253
44.18,460.577,9.439,70.256,-2.01097
44.23,461.077,9.292,69.165,-2.4225
44.28,461.577,9.14,68.033,-2.26558
44.33,462.077,8.98,66.844,-2.50659
44.38,462.577,8.813,65.597,-2.57562
44.43,463.077,8.636,64.283,-2.52299
44.48,463.577,8.46,62.975,-2.70462
44.53,464.078,8.278,61.617,-2.81204
44.58,464.578,8.09,60.217,-2.7758
44.63,465.078,7.898,58.792,-2.89943
44.68,465.578,7.699,57.307,-3.02178
44.73,466.078,7.492,55.765,-3.08513
44.78,466.578,7.286,54.234,-3.07794
44.83,467.078,7.07,52.629,-3.24162
44.88,467.578,6.855,51.023,-3.21857
44.93,468.078,6.631,49.359,-3.41067
44.98,468.578,6.405,47.677,-3.48595
45.03,469.078,6.172,45.943,-3.38246
45.08,469.578,5.937,44.193,-3.59301
45.13,470.079,5.699,42.419,-3.61718
45.18,470.579,5.45,40.569,-3.73575
45.23,471.079,5.204,38.737,-3.60295
45.28,471.579,4.956,36.889,-3.55731
45.33,472.079,4.71,35.056,-3.6957
45.38,472.579,4.458,33.186,-3.85829
45.43,473.079,4.204,31.296,-3.90472
45.48,473.579,3.925,29.215,-4.23933
45.53,474.079,3.656,27.214,-3.73735
45.58,474.579,3.404,25.339,-3.67704
45.63,475.079,3.15,23.449,-2.50464
45.68,475.58,2.964,22.062,-2.87165
45.73,476.08,2.765,20.584,-2.90269
45.78,476.58,2.574,19.162,-2.83388
45.83,477.08,2.382,17.729,-2.69035
45.88,477.58,2.205,16.413,-2.63169
45.93,478.08,2.033,15.136,-2.44063
45.98,478.58,1.869,13.913,-2.38709
46.03,479.08,1.713,12.749,-2.21685
46.08,479.58,1.572,11.698,-2.15292
46.13,480.08,1.435,10.682,-1.97283
46.18,480.58,1.309,9.746,-1.75714
46.23,481.081,1.195,8.896,-1.59962
46.28,481.581,1.094,8.144,-1.47603
46.33,482.081,1.001,7.451,-1.27331
46.38,482.581,0.9190000,6.838,-1.13403
46.43,483.081,0.8460000,6.296,-0.9788150
46.48,483.581,0.7850000,5.845,-0.8680280
46.53,484.081,0.7320000,5.447,-0.7469170
46.58,484.581,0.6870000,5.112,-0.5989470
46.63,485.081,0.6490000,4.833,-0.5081800
46.68,485.581,0.6190000,4.604,-0.4200040
46.73,486.081,0.5940000,4.421,-0.3313840
46.78,486.582,0.5740000,4.276,-0.2653870
46.83,487.082,0.5590000,4.164,-0.1932490
46.88,487.582,0.5480000,4.081,-0.1491000
46.93,488.082,0.5400000,4.019,-0.1044590
46.98,488.582,0.5340000,3.977,-0.0707456
47.03,489.082,0.5310000,3.949,-0.0475921
47.08,489.582,0.5270000,3.924,-0.0498236
47.13,490.082,0.5240000,3.9,-0.0481011
47.18,490.582,0.5210000,3.877,-0.0426719
47.23,491.082,0.5180000,3.857,-0.0373585
47.28,491.582,0.5160000,3.84,-0.0315527
47.33,492.083,0.5140000,3.825,-0.0268297
47.38,492.583,0.5120000,3.813,-0.0222638
47.43,493.083,0.5110000,3.803,-0.0183578
47.48,493.583,0.5100000,3.794,-0.0151396
47.53,494.083,0.5090000,3.788,-0.0123079
47.58,494.583,0.5080000,3.782,-0.0097518
47.64,495.083,0.5070000,3.777,-0.0076328
47.69,495.583,0.5070000,3.774,-0.0065776
47.74,496.083,0.5070000,3.771,-0.0051121
47.79,496.583,0.5060000,3.769,-0.0043311
47.83,497.083,0.5060000,3.767,-0.0031802
47.88,497.583,0.5060000,3.765,-0.0025445
47.93,498.084,0.5060000,3.764,-0.0017679
47.98,498.584,0.5060000,3.763,-0.0016449
48.03,499.084,0.5050000,3.762,-0.0009479
48.08,499.584,0.5050000,3.762,-0.0012248
48.13,500.084,0.5050000,3.761,-0.0006856
48.18,500.584,0.5050000,3.761,-0.0009278
48.23,501.084,0.5050000,3.76,-0.0007286
48.28,501.584,0.5050000,3.76,-0.0004011
48.33,502.084,0.5050000,3.76,-0.0002532
48.38,502.584,0.5050000,3.76,0.0000029
48.43,503.084,0.5050000,3.76,-0.0000488
48.48,503.585,0.5050000,3.759,0.0003748
48.53,504.085,0.5050000,3.759,0.0000388
48.58,504.585,0.5050000,3.759,-0.0000445
48.63,505.085,0.5050000,3.759,0.0000201
48.68,505.585,0.5050000,3.759,0.0003999
48.73,506.085,0.5050000,3.759,0.0003540
48.78,506.585,0.5050000,3.759,0.0002634
48.83,507.085,0.5050000,3.759,-0.0001074
48.88,507.585,0.5050000,3.759,0.0001588
48.93,508.085,0.5050000,3.759,-0.0001960
48.98,508.585,0.5050000,3.759,0.0000602
49.03,509.086,0.5050000,3.76,0.0001030
49.08,509.586,0.5050000,3.76,0.0001331
49.13,510.086,0.5050000,3.76,-0.0002890
49.18,510.586,0.5050000,3.76,0.0003736
49.23,511.086,0.5050000,3.76,0.0001904
49.28,511.586,0.5050000,3.76,-0.0000315
49.33,512.086,0.5050000,3.76,-0.0004097
49.38,512.586,0.5050000,3.76,0.0000960
49.43,513.086,0.5050000,3.76,-0.0001548
49.48,513.586,0.5050000,3.76,0.0002810
49.53,514.086,0.5050000,3.76,0.0001202
49.58,514.587,0.5050000,3.76,0.0002404
49.63,515.087,0.5050000,3.76,-0.0001258
49.68,515.587,0.5050000,3.76,0.0001746
49.73,516.087,0.5050000,3.76,-0.0001474
49.78,516.587,0.5050000,3.76,0.0001215
49.83,517.087,0.5050000,3.76,-0.0003131
49.88,517.587,0.5050000,3.76,-0.0000730
49.93,518.087,0.5050000,3.76,-0.0000544
49.98,518.587,0.5050000,3.761,0.0003901
50.03,519.087,0.5050000,3.761,-0.0000029
50.08,519.587,0.5050000,3.761,-0.0001272
50.13,520.088,0.5050000,3.761,-0.0001957
50.18,520.588,0.5050000,3.761,-0.0000415
50.23,521.088,0.5050000,3.761,0.0001617
50.28,521.588,0.5050000,3.761,-0.0002602
50.33,522.088,0.5050000,3.761,0.0001116
50.38,522.588,0.5050000,3.761,0.0000543
50.43,523.088,0.5050000,3.761,0.0001785
50.48,523.588,0.5050000,3.761,0.0001271
50.53,524.088,0.5050000,3.761,0.0004659
50.58,524.588,0.5050000,3.761,0.0003673
50.63,525.088,0.5050000,3.761,0.0000986
50.68,525.588,0.5050000,3.761,0.0003371
50.73,526.089,0.5050000,3.761,0.0002558
50.78,526.589,0.5050000,3.761,0.0000687
50.83,527.089,0.5050000,3.761,0.0000358
50.88,527.589,0.5050000,3.761,0.0001486
50.93,528.089,0.5050000,3.761,-0.0001374
50.98,528.589,0.5050000,3.761,0.0003005
51.03,529.089,0.5050000,3.761,0.0001877
51.08,529.589,0.5050000,3.761,-0.0002332
51.13,530.089,0.5050000,3.761,0.0000799
51.18,530.589,0.5050000,3.761,-0.0000714
51.23,531.089,0.5050000,3.761,0.0002014
51.28,531.59,0.5050000,3.761,0.0000443
51.33,532.09,0.5050000,3.761,0.0001844
51.38,532.59,0.5050000,3.761,0.0002057
51.43,533.09,0.5050000,3.761,0.0002444
51.48,533.59,0.5050000,3.761,0.0000672
51.53,534.09,0.5050000,3.761,-0.0001200
51.58,534.59,0.5050000,3.761,0.0003701
51.63,535.09,0.5050000,3.761,-0.0000314
51.68,535.59,0.5050000,3.761,-0.0000943
51.73,536.09,0.5050000,3.761,-0.0001757
51.78,536.59,0.5050000,3.761,-0.0001686
51.83,537.091,0.5050000,3.761,-0.0001544
51.88,537.591,0.5050000,3.76,-0.0004550
51.93,538.091,0.5050000,3.76,-0.0000730
51.98,538.591,0.5050000,3.76,-0.0007691
52.03,539.091,0.5050000,3.76,-0.0002702
52.08,539.591,0.5050000,3.76,-0.0001545
52.13,540.091,0.5050000,3.76,-0.0001173
52.18,540.591,0.5050000,3.76,-0.0003844
52.23,541.091,0.5050000,3.76,-0.0002502
52.28,541.591,0.5050000,3.76,-0.0001499
52.33,542.091,0.5050000,3.76,0.0000900
52.38,542.592,0.5050000,3.76,0.0000885
52.43,543.092,0.5050000,3.76,0.0001343
52.48,543.592,0.5050000,3.76,-0.0003453
52.53,544.092,0.5050000,3.76,-0.0000143
52.58,544.592,0.5050000,3.759,0.0000285
52.63,545.092,0.5050000,3.759,-0.0000570
52.68,545.592,0.5050000,3.759,0.0000243
52.73,546.092,0.5050000,3.759,-0.0000801
52.78,546.592,0.5050000,3.759,0.0000615
52.83,547.092,0.5050000,3.759,0.0000987
52.88,547.592,0.5050000,3.759,-0.0006590
52.93,548.093,0.5050000,3.759,0.0000100
52.98,548.593,0.5050000,3.759,-0.0002673
53.03,549.093,0.5050000,3.759,-0.0000672
53.08,549.593,0.5050000,3.759,0.0002258
53.13,550.093,0.5050000,3.759,0.0000973
53.18,550.593,0.5050000,3.758,-0.0004679
53.23,551.093,0.5050000,3.758,-0.0001045
53.28,551.593,0.5050000,3.758,0.0001502
53.33,552.093,0.5050000,3.758,-0.0001972
53.38,552.593,0.5050000,3.758,-0.0003116
53.43,553.093,0.5050000,3.758,-0.0001300
53.48,553.593,0.5050000,3.758,-0.0002842
53.53,554.094,0.5050000,3.758,-0.0002786
53.58,554.594,0.5050000,3.758,-0.0002957
53.63,555.094,0.5050000,3.757,-0.0003743
53.68,555.594,0.5050000,3.757,-0.0001286
53.73,556.094,0.5050000,3.757,-0.0005172
53.78,556.594,0.5050000,3.757,-0.0004519
53.83,557.094,0.5050000,3.757,-0.0002673
53.88,557.594,0.5050000,3.757,-0.0003788
53.93,558.094,0.5050000,3.757,-0.0001316
53.98,558.594,0.5050000,3.756,-0.0006276
54.03,559.094,0.5050000,3.756,-0.0004459
54.08,559.595,0.5050000,3.756,0.0000429
54.13,560.095,0.5050000,3.756,-0.0001273
54.18,560.595,0.5050000,3.756,-0.0000258
54.23,561.095,0.5050000,3.756,0.0000529
54.28,561.595,0.5050000,3.756,-0.0003201
54.33,562.095,0.5050000,3.755,-0.0003888
54.38,562.595,0.5040000,3.755,-0.0000686
54.43,563.095,0.5040000,3.755,-0.0005898
54.48,563.595,0.5040000,3.755,-0.0005746
54.53,564.095,0.5040000,3.755,-0.0004658
54.58,564.595,0.5040000,3.755,-0.0000786
54.63,565.096,0.5040000,3.754,-0.0007254
54.68,565.596,0.5040000,3.754,-0.0004522
54.73,566.096,0.5040000,3.754,-0.0002559
54.78,566.596,0.5040000,3.754,-0.0002728
54.83,567.096,0.5040000,3.754,-0.0007375
54.88,567.596,0.5040000,3.753,-0.0007260
54.93,568.096,0.5040000,3.753,-0.0004507
54.98,568.596,0.5040000,3.753,-0.0003848
55.03,569.096,0.5040000,3.753,-0.0005546
55.08,569.596,0.5040000,3.753,-0.0000601
55.13,570.096,0.5040000,3.752,-0.0004960
55.18,570.597,0.5040000,3.752,-0.0004075
55.23,571.097,0.5040000,3.752,-0.0004173
55.28,571.597,0.5040000,3.752,-0.0006260
55.33,572.097,0.5040000,3.751,-0.0007832
55.38,572.597,0.5040000,3.751,-0.0003342
55.43,573.097,0.5040000,3.751,-0.0002486
55.48,573.597,0.5040000,3.751,-0.0005203
55.53,574.097,0.5040000,3.75,-0.0007402
55.58,574.597,0.5040000,3.75,-0.0008636
55.63,575.097,0.5040000,3.749,-0.0007474
55.68,575.597,0.5040000,3.749,-0.0006576
55.73,576.098,0.5040000,3.749,-0.0001801
55.78,576.598,0.5040000,3.748,-0.0007534
55.83,577.098,0.5040000,3.748,-0.0005913
55.88,577.598,0.5030000,3.748,-0.0007829
55.93,578.098,0.5030000,3.747,-0.0008719
55.98,578.598,0.5030000,3.747,-0.0006631
56.03,579.098,0.5030000,3.746,-0.0007718
56.08,579.598,0.5030000,3.746,-0.0006672
56.13,580.098,0.5030000,3.746,-0.0005852
56.18,580.598,0.5030000,3.745,-0.0008548
56.23,581.098,0.5030000,3.745,-0.0008151
56.28,581.598,0.5030000,3.745,-0.0005629
56.33,582.099,0.5030000,3.744,-0.0009773
56.38,582.599,0.5030000,3.744,-0.0009909
56.43,583.099,0.5030000,3.743,-0.0008487
56.48,583.599,0.5030000,3.743,-0.0012893
56.53,584.099,0.5030000,3.742,-0.0008636
56.58,584.599,0.5030000,3.742,-0.0009844
56.63,585.099,0.5030000,3.742,-0.0010388
56.68,585.599,0.5030000,3.741,-0.0008571
56.73,586.099,0.5030000,3.741,-0.0012663
56.78,586.599,0.5020000,3.74,-0.0008847
56.83,587.099,0.5020000,3.74,-0.0009234
56.88,587.6,0.5020000,3.739,-0.0007987
56.93,588.1,0.5020000,3.739,-0.0012606
56.98,588.6,0.5020000,3.739,-0.0010233
57.03,589.1,0.5020000,3.738,-0.0009372
57.08,589.6,0.5020000,3.738,-0.0008714
57.12,590,0.5020000,3.737,-0.0007335