File: R/rHDPE_App/app/www/Output/TGA/Condensed_Data/Resin19_1_.csv
0.6800000,30,12.105,100.025,0.0168180
0.7500000,30.5001,12.105,100.029,0.0135796
0.8200000,31.0002,12.106,100.033,-0.0003637
0.8900000,31.5003,12.106,100.035,0.0086069
0.9500000,32.0004,12.106,100.038,0.0093128
1.01,32.5004,12.107,100.04,0.0092075
1.07,33.0005,12.107,100.042,0.0063645
1.13,33.5006,12.107,100.043,0.0018207
1.19,34.0007,12.107,100.045,-0.0002643
1.24,34.5008,12.107,100.046,0.0062111
1.3,35.0009,12.107,100.047,0.0004656
1.36,35.501,12.108,100.049,0.0017923
1.41,36.0011,12.108,100.05,0.0029982
1.47,36.5012,12.108,100.051,0.0007062
1.52,37.0013,12.108,100.052,0.0025062
1.58,37.5013,12.108,100.053,0.0025904
1.63,38.0014,12.108,100.054,0.0015870
1.69,38.5015,12.108,100.055,0.0041471
1.74,39.0016,12.108,100.056,0.0003444
1.79,39.5017,12.109,100.056,0.0016670
1.85,40.0018,12.109,100.057,0.0022491
1.9,40.5019,12.109,100.058,0.0007319
1.96,41.002,12.109,100.059,0.0026291
2.01,41.5021,12.109,100.06,0.0014089
2.06,42.0021,12.109,100.061,0.0005332
2.11,42.5022,12.109,100.061,0.0016937
2.17,43.0023,12.109,100.062,0.0020776
2.22,43.5024,12.109,100.063,0.0010608
2.27,44.0025,12.109,100.064,0.0023113
2.33,44.5026,12.11,100.065,0.0019708
2.38,45.0027,12.11,100.066,0.0015368
2.43,45.5028,12.11,100.067,0.0008148
2.48,46.0029,12.11,100.067,0.0023941
2.53,46.5029,12.11,100.068,0.0027725
2.59,47.003,12.11,100.069,0.0006207
2.64,47.5031,12.11,100.07,0.0011448
2.69,48.0032,12.11,100.071,0.0022385
2.74,48.5033,12.11,100.072,0.0026175
2.79,49.0034,12.111,100.073,0.0014737
2.85,49.5035,12.111,100.074,0.0019471
2.9,50.0036,12.111,100.075,0.0026090
2.95,50.5037,12.111,100.076,0.0023699
3,51.0038,12.111,100.077,0.0014678
3.05,51.5038,12.111,100.078,0.0008986
3.11,52.0039,12.111,100.079,0.0014175
3.16,52.504,12.111,100.079,0.0025464
3.21,53.0041,12.111,100.08,0.0023084
3.26,53.5042,12.112,100.081,0.0008944
3.31,54.0043,12.112,100.082,0.0013637
3.36,54.5044,12.112,100.083,0.0018795
3.41,55.0045,12.112,100.084,0.0018774
3.46,55.5046,12.112,100.085,0.0020171
3.51,56.0046,12.112,100.085,0.0027642
3.57,56.5047,12.112,100.086,0.0016847
3.62,57.0048,12.112,100.087,0.0021980
3.67,57.5049,12.112,100.088,0.0017760
3.72,58.005,12.113,100.089,0.0013070
3.77,58.5051,12.113,100.09,0.0018192
3.82,59.0052,12.113,100.091,0.0006057
3.87,59.5053,12.113,100.091,0.0015841
3.92,60.0054,12.113,100.092,0.0023277
3.98,60.5054,12.113,100.093,0.0023253
4.03,61.0055,12.113,100.094,0.0019993
4.08,61.5056,12.113,100.095,0.0021835
4.13,62.0057,12.113,100.095,0.0019967
4.18,62.5058,12.113,100.096,-0.0000463
4.23,63.0059,12.113,100.097,0.0025017
4.28,63.506,12.114,100.097,0.0007399
4.33,64.0061,12.114,100.098,0.0014335
4.38,64.5062,12.114,100.099,0.0015262
4.43,65.0063,12.114,100.099,0.0010624
4.48,65.5063,12.114,100.1,0.0011555
4.53,66.0064,12.114,100.101,0.0003694
4.58,66.5065,12.114,100.101,0.0016151
4.63,67.0066,12.114,100.102,0.0020759
4.68,67.5067,12.114,100.103,0.0000922
4.73,68.0068,12.114,100.103,0.0008291
4.78,68.5069,12.114,100.104,0.0008752
4.83,69.007,12.114,100.105,0.0013351
4.88,69.5071,12.114,100.105,0.0013815
4.93,70.0071,12.115,100.106,0.0013824
4.98,70.5072,12.115,100.107,0.0012897
5.04,71.0073,12.115,100.107,0.0012437
5.09,71.5074,12.115,100.108,0.0004602
5.14,72.0075,12.115,100.109,0.0014257
5.19,72.5076,12.115,100.109,0.0011495
5.24,73.0077,12.115,100.11,0.0011017
5.29,73.5078,12.115,100.111,0.0026596
5.34,74.0079,12.115,100.111,0.0016961
5.39,74.5079,12.115,100.112,0.0011932
5.44,75.008,12.115,100.113,0.0013760
5.49,75.5081,12.115,100.113,0.0015120
5.54,76.0082,12.115,100.114,0.0004578
5.59,76.5083,12.116,100.114,0.0008714
5.64,77.0084,12.116,100.115,0.0012841
5.69,77.5085,12.116,100.115,0.0012391
5.74,78.0086,12.116,100.116,0.0004581
5.79,78.5087,12.116,100.116,0.0005038
5.84,79.0088,12.116,100.116,0.0002290
5.89,79.5088,12.116,100.117,0.0006877
5.94,80.0089,12.116,100.117,0.0006422
5.99,80.509,12.116,100.118,0.0013780
6.04,81.0091,12.116,100.118,0.0009186
6.09,81.5092,12.116,100.119,0.0016076
6.14,82.0093,12.116,100.119,0.0012823
6.19,82.5094,12.116,100.12,0.0016032
6.24,83.0095,12.116,100.12,0.0007785
6.29,83.5096,12.116,100.121,0.0005501
6.34,84.0096,12.116,100.121,0.0010550
6.39,84.5097,12.116,100.122,0.0009169
6.44,85.0098,12.116,100.122,0.0007774
6.49,85.5099,12.117,100.122,0.0015083
6.54,86.01,12.117,100.123,0.0013713
6.59,86.5101,12.117,100.123,0.0014634
6.64,87.0102,12.117,100.124,0.0014184
6.69,87.5103,12.117,100.124,0.0007314
6.74,88.0104,12.117,100.124,0.0008684
6.79,88.5104,12.117,100.125,0.0015095
6.84,89.0105,12.117,100.125,0.0004110
6.89,89.5106,12.117,100.125,0.0016021
6.94,90.0107,12.117,100.126,0.0015106
6.99,90.5108,12.117,100.126,0.0005035
7.04,91.0109,12.117,100.126,0.0007336
7.09,91.511,12.117,100.126,0.0010534
7.14,92.0111,12.117,100.127,0.0004580
7.19,92.5112,12.117,100.127,0.0001372
7.24,93.0113,12.117,100.128,0.0009176
7.29,93.5113,12.117,100.128,0.0007802
7.34,94.0114,12.117,100.128,-0.0001831
7.39,94.5115,12.117,100.128,0.0001828
7.44,95.0116,12.117,100.129,0.0010546
7.49,95.5117,12.117,100.129,0.0006418
7.54,96.0118,12.117,100.129,-0.0000000
7.59,96.5119,12.117,100.129,0.0003208
7.64,97.012,12.117,100.129,0.0003653
7.69,97.5121,12.117,100.129,-0.0000458
7.74,98.0121,12.117,100.129,-0.0000457
7.79,98.5122,12.117,100.13,-0.0004568
7.84,99.0123,12.117,100.13,-0.0007312
7.89,99.5124,12.117,100.13,0.0000457
7.94,100.013,12.117,100.13,0.0011436
7.99,100.513,12.117,100.13,0.0001828
8.04,101.013,12.118,100.13,-0.0001373
8.09,101.513,12.118,100.131,0.0003212
8.14,102.013,12.118,100.131,-0.0000459
8.19,102.513,12.118,100.131,0.0003211
8.24,103.013,12.118,100.131,0.0004132
8.29,103.513,12.118,100.131,0.0000459
8.34,104.013,12.118,100.131,0.0001834
8.39,104.513,12.118,100.131,0.0002748
8.44,105.013,12.118,100.131,0.0001369
8.49,105.513,12.118,100.131,0.0001372
8.54,106.014,12.118,100.131,-0.0001830
8.59,106.514,12.118,100.131,-0.0000000
8.64,107.014,12.118,100.131,-0.0000915
8.69,107.514,12.118,100.131,0.0002290
8.74,108.014,12.118,100.131,-0.0001826
8.79,108.514,12.118,100.131,-0.0002738
8.84,109.014,12.118,100.131,0.0000000
8.89,109.514,12.118,100.131,-0.0007298
8.94,110.014,12.118,100.131,-0.0006388
8.99,110.514,12.118,100.131,0.0000916
9.04,111.014,12.118,100.131,0.0000000
9.09,111.515,12.118,100.131,-0.0000459
9.14,112.015,12.118,100.131,-0.0000459
9.19,112.515,12.118,100.131,0.0001835
9.24,113.015,12.118,100.131,0.0000918
9.29,113.515,12.118,100.131,0.0002754
9.34,114.015,12.118,100.131,-0.0006400
9.39,114.515,12.118,100.131,-0.0007758
9.44,115.015,12.118,100.131,0.0001370
9.49,115.515,12.118,100.131,0.0013713
9.54,116.015,12.118,100.131,0.0005039
9.59,116.515,12.118,100.131,-0.0000917
9.64,117.016,12.118,100.132,-0.0028826
9.69,117.516,12.117,100.13,-0.0045342
9.74,118.016,12.117,100.128,-0.0048896
9.79,118.516,12.117,100.126,-0.0036123
9.84,119.016,12.117,100.126,0.0046530
9.89,119.516,12.117,100.13,0.0030540
9.94,120.016,12.117,100.13,-0.0009118
9.99,120.516,12.117,100.13,-0.0014624
10.04,121.016,12.117,100.13,-0.0010523
10.09,121.516,12.117,100.129,-0.0011007
10.14,122.016,12.117,100.129,-0.0009644
10.19,122.517,12.117,100.129,0.0001379
10.24,123.017,12.117,100.129,-0.0001840
10.29,123.517,12.117,100.128,0.0003220
10.34,124.017,12.117,100.128,0.0004598
10.39,124.517,12.117,100.128,0.0002300
10.44,125.017,12.117,100.128,-0.0004594
10.49,125.517,12.117,100.128,-0.0002757
10.54,126.017,12.117,100.128,0.0008724
10.59,126.517,12.117,100.129,-0.0000459
10.64,127.017,12.117,100.128,0.0000000
10.69,127.517,12.117,100.129,0.0005963
10.74,128.018,12.117,100.129,0.0010547
10.79,128.518,12.117,100.129,0.0005048
10.84,129.018,12.117,100.129,0.0006885
10.89,129.518,12.117,100.129,-0.0000459
10.94,130.018,12.117,100.129,-0.0000459
10.99,130.518,12.117,100.129,0.0002293
11.04,131.018,12.117,100.13,0.0005957
11.09,131.518,12.117,100.13,0.0003668
11.14,132.018,12.117,100.13,-0.0001375
11.19,132.518,12.118,100.13,0.0003666
11.24,133.018,12.118,100.131,0.0010531
11.29,133.518,12.118,100.131,0.0000914
11.34,134.019,12.118,100.131,-0.0000001
11.39,134.519,12.118,100.131,-0.0005027
11.44,135.019,12.118,100.131,0.0008709
11.49,135.519,12.118,100.131,0.0007325
11.54,136.019,12.118,100.131,0.0002289
11.59,136.519,12.118,100.132,0.0001833
11.64,137.019,12.118,100.132,-0.0004122
11.69,137.519,12.118,100.131,-0.0007766
11.74,138.019,12.118,100.131,0.0003655
11.79,138.519,12.118,100.131,-0.0005481
11.84,139.019,12.118,100.131,-0.0010964
11.89,139.52,12.117,100.13,-0.0015034
11.94,140.02,12.117,100.13,-0.0008210
11.99,140.52,12.117,100.129,-0.0012301
12.04,141.02,12.117,100.128,-0.0026801
12.09,141.52,12.117,100.127,-0.0010907
12.14,142.02,12.117,100.127,-0.0015440
12.19,142.52,12.117,100.125,-0.0018168
12.24,143.02,12.117,100.124,-0.0030853
12.29,143.52,12.117,100.123,-0.0026323
12.34,144.02,12.117,100.122,-0.0019062
12.39,144.52,12.116,100.121,-0.0024527
12.44,145.021,12.116,100.12,-0.0019548
12.49,145.521,12.116,100.119,-0.0020501
12.54,146.021,12.116,100.118,-0.0015950
12.58,146.521,12.116,100.117,-0.0019635
12.63,147.021,12.116,100.117,-0.0017836
12.68,147.521,12.116,100.116,-0.0019215
12.73,148.021,12.116,100.115,-0.0013735
12.78,148.521,12.116,100.115,-0.0009172
12.83,149.021,12.116,100.114,-0.0014229
12.89,149.521,12.115,100.114,-0.0004598
12.94,150.021,12.115,100.113,-0.0010580
12.99,150.522,12.115,100.113,-0.0001841
13.04,151.022,12.115,100.113,-0.0003683
13.09,151.522,12.115,100.112,-0.0007353
13.14,152.022,12.115,100.112,-0.0022037
13.19,152.522,12.115,100.111,-0.0006430
13.24,153.022,12.115,100.111,-0.0000460
13.29,153.522,12.115,100.11,-0.0006432
13.34,154.022,12.115,100.11,-0.0005521
13.39,154.522,12.115,100.11,-0.0006447
13.44,155.022,12.115,100.11,-0.0005064
13.49,155.522,12.115,100.109,-0.0009197
13.54,156.023,12.115,100.109,-0.0002299
13.59,156.523,12.115,100.108,-0.0009190
13.64,157.023,12.115,100.108,-0.0004595
13.69,157.523,12.115,100.108,-0.0002297
13.74,158.023,12.115,100.108,-0.0002755
13.79,158.523,12.115,100.108,-0.0005509
13.84,159.023,12.115,100.107,-0.0006426
13.89,159.523,12.115,100.107,-0.0004127
13.94,160.023,12.115,100.107,0.0004589
13.99,160.523,12.115,100.106,-0.0019701
14.04,161.023,12.115,100.106,-0.0005502
14.09,161.523,12.115,100.106,-0.0000459
14.14,162.024,12.115,100.106,-0.0006427
14.19,162.524,12.115,100.106,-0.0005958
14.24,163.024,12.115,100.106,-0.0008255
14.29,163.524,12.115,100.106,-0.0006423
14.34,164.024,12.114,100.105,-0.0009620
14.39,164.524,12.114,100.105,-0.0000001
14.44,165.024,12.114,100.105,-0.0008244
14.49,165.524,12.114,100.105,-0.0005955
14.54,166.024,12.114,100.105,-0.0006876
14.59,166.524,12.114,100.104,-0.0005041
14.64,167.024,12.114,100.104,-0.0012375
14.69,167.525,12.114,100.104,-0.0013297
14.74,168.025,12.114,100.103,-0.0004590
14.79,168.525,12.114,100.103,-0.0011927
14.84,169.025,12.114,100.103,-0.0007798
14.89,169.525,12.114,100.103,-0.0006417
14.94,170.025,12.114,100.102,-0.0006874
14.99,170.525,12.114,100.102,-0.0010533
15.04,171.025,12.114,100.102,-0.0005489
15.09,171.525,12.114,100.101,-0.0003203
15.14,172.025,12.114,100.101,-0.0005496
15.19,172.525,12.114,100.101,-0.0002292
15.24,173.026,12.114,100.101,-0.0000918
15.29,173.526,12.114,100.1,-0.0001836
15.34,174.026,12.114,100.1,-0.0004587
15.39,174.526,12.114,100.1,0.0001377
15.44,175.026,12.114,100.1,-0.0007335
15.49,175.526,12.114,100.099,-0.0012841
15.54,176.026,12.114,100.099,-0.0006870
15.59,176.526,12.114,100.098,-0.0009627
15.64,177.026,12.114,100.098,-0.0003668
15.69,177.526,12.114,100.098,-0.0007335
15.74,178.026,12.114,100.097,-0.0010528
15.79,178.527,12.113,100.097,-0.0008243
15.84,179.027,12.113,100.097,-0.0010526
15.89,179.527,12.113,100.096,-0.0009147
15.94,180.027,12.113,100.096,-0.0005037
15.99,180.527,12.113,100.096,-0.0008688
16.04,181.027,12.113,100.095,-0.0012815
16.09,181.527,12.113,100.095,-0.0006878
16.14,182.027,12.113,100.095,-0.0003664
16.19,182.527,12.113,100.094,-0.0010549
16.24,183.027,12.113,100.094,-0.0006406
16.29,183.527,12.113,100.094,-0.0000459
16.34,184.028,12.113,100.093,-0.0005499
16.39,184.528,12.113,100.093,-0.0015578
16.44,185.028,12.113,100.093,-0.0007328
16.49,185.528,12.113,100.092,-0.0007790
16.54,186.028,12.113,100.092,-0.0006874
16.59,186.528,12.113,100.092,-0.0008242
16.64,187.028,12.113,100.091,-0.0006882
16.69,187.528,12.113,100.091,-0.0011897
16.74,188.028,12.113,100.091,-0.0005951
16.79,188.528,12.113,100.09,-0.0009155
16.84,189.028,12.113,100.09,-0.0007324
16.89,189.528,12.113,100.09,-0.0016491
16.94,190.029,12.112,100.089,-0.0003664
16.99,190.529,12.112,100.089,-0.0014204
17.04,191.029,12.112,100.089,-0.0014665
17.09,191.529,12.112,100.088,-0.0008708
17.14,192.029,12.112,100.088,-0.0011001
17.19,192.529,12.112,100.087,-0.0004124
17.24,193.029,12.112,100.087,-0.0008253
17.29,193.529,12.112,100.086,-0.0011002
17.34,194.029,12.112,100.086,-0.0006418
17.39,194.529,12.112,100.086,-0.0013746
17.44,195.029,12.112,100.085,-0.0009618
17.49,195.53,12.112,100.085,-0.0005037
17.54,196.03,12.112,100.084,-0.0006868
17.59,196.53,12.112,100.084,-0.0010531
17.64,197.03,12.112,100.084,-0.0005497
17.69,197.53,12.112,100.083,-0.0001832
17.74,198.03,12.112,100.083,-0.0012824
17.79,198.53,12.112,100.083,-0.0010080
17.84,199.03,12.112,100.082,-0.0005492
17.89,199.53,12.112,100.082,-0.0005496
17.94,200.03,12.112,100.081,-0.0006404
17.99,200.53,12.112,100.081,-0.0010974
18.04,201.031,12.111,100.081,-0.0003660
18.09,201.531,12.111,100.08,-0.0007778
18.14,202.031,12.111,100.08,-0.0005960
18.19,202.531,12.111,100.079,-0.0006876
18.24,203.031,12.111,100.079,-0.0002289
18.29,203.531,12.111,100.079,-0.0014199
18.34,204.031,12.111,100.078,-0.0008258
18.39,204.531,12.111,100.078,-0.0000457
18.44,205.031,12.111,100.078,-0.0014167
18.49,205.531,12.111,100.077,-0.0008706
18.54,206.031,12.111,100.076,-0.0005036
18.59,206.532,12.111,100.076,-0.0011905
18.64,207.032,12.111,100.076,-0.0012827
18.69,207.532,12.111,100.075,-0.0011930
18.74,208.032,12.111,100.075,-0.0006421
18.79,208.532,12.111,100.074,-0.0021962
18.84,209.032,12.111,100.074,-0.0014181
18.89,209.532,12.111,100.073,-0.0003212
18.94,210.032,12.111,100.073,-0.0006431
19,210.532,12.11,100.072,-0.0016026
19.05,211.032,12.11,100.072,-0.0015124
19.1,211.532,12.11,100.071,-0.0010521
19.15,212.033,12.11,100.071,-0.0014207
19.2,212.533,12.11,100.071,-0.0019249
19.25,213.033,12.11,100.07,-0.0007339
19.3,213.533,12.11,100.07,-0.0011455
19.35,214.033,12.11,100.07,-0.0002750
19.4,214.533,12.11,100.069,-0.0012359
19.45,215.033,12.11,100.069,-0.0005500
19.5,215.533,12.11,100.068,-0.0003217
19.55,216.033,12.11,100.068,-0.0009197
19.6,216.533,12.11,100.067,-0.0010572
19.65,217.033,12.11,100.067,-0.0008272
19.7,217.533,12.11,100.066,-0.0009649
19.75,218.034,12.11,100.066,-0.0009637
19.8,218.534,12.11,100.065,-0.0010086
19.85,219.034,12.11,100.065,-0.0017877
19.9,219.534,12.11,100.064,-0.0015589
19.95,220.034,12.109,100.064,-0.0008265
20,220.534,12.109,100.063,-0.0009172
20.05,221.034,12.109,100.063,-0.0008715
20.1,221.534,12.109,100.062,-0.0001837
20.15,222.034,12.109,100.062,0.0000000
20.2,222.534,12.109,100.062,-0.0019241
20.25,223.034,12.109,100.061,-0.0011004
20.3,223.535,12.109,100.061,-0.0011004
20.35,224.035,12.109,100.06,-0.0006420
20.4,224.535,12.109,100.06,-0.0006880
20.45,225.035,12.109,100.059,-0.0018797
20.5,225.535,12.109,100.059,-0.0011468
20.55,226.035,12.109,100.058,-0.0011026
20.6,226.535,12.109,100.057,-0.0012844
20.65,227.035,12.109,100.057,-0.0005506
20.7,227.535,12.109,100.056,-0.0006884
20.75,228.035,12.108,100.056,-0.0006879
20.8,228.535,12.108,100.055,-0.0007789
20.85,229.036,12.108,100.055,-0.0009159
20.9,229.536,12.108,100.054,-0.0008233
20.95,230.036,12.108,100.054,-0.0004119
21,230.536,12.108,100.053,-0.0010046
21.05,231.036,12.108,100.053,-0.0014172
21.1,231.536,12.108,100.052,-0.0010075
21.15,232.036,12.108,100.052,-0.0010521
21.2,232.536,12.108,100.051,-0.0011447
21.25,233.036,12.108,100.051,-0.0016004
21.3,233.536,12.108,100.05,-0.0012793
21.35,234.036,12.108,100.049,-0.0011473
21.4,234.537,12.108,100.049,-0.0009155
21.45,235.037,12.108,100.048,-0.0011457
21.5,235.537,12.108,100.048,0.0000001
21.55,236.037,12.107,100.048,-0.0016467
21.6,236.537,12.107,100.047,-0.0016988
21.65,237.037,12.107,100.046,-0.0014621
21.7,237.537,12.107,100.046,-0.0006854
21.75,238.037,12.107,100.045,-0.0010064
21.8,238.537,12.107,100.045,-0.0009602
21.85,239.037,12.107,100.044,-0.0005026
21.9,239.537,12.107,100.043,-0.0010546
21.95,240.038,12.107,100.043,-0.0013749
22,240.538,12.107,100.042,-0.0020600
22.05,241.038,12.107,100.041,-0.0011002
22.1,241.538,12.107,100.041,-0.0012830
22.15,242.038,12.107,100.04,-0.0018298
22.2,242.538,12.106,100.039,-0.0016925
22.25,243.038,12.106,100.039,-0.0011900
22.3,243.538,12.106,100.038,-0.0011908
22.35,244.038,12.106,100.037,-0.0025587
22.4,244.538,12.106,100.037,-0.0012788
22.45,245.038,12.106,100.036,-0.0013303
22.5,245.538,12.106,100.036,-0.0014702
22.55,246.039,12.106,100.035,-0.0015117
22.6,246.539,12.106,100.035,-0.0011921
22.65,247.039,12.106,100.034,-0.0013303
22.7,247.539,12.106,100.033,-0.0010987
22.75,248.039,12.106,100.033,-0.0017825
22.8,248.539,12.106,100.032,-0.0014164
22.85,249.039,12.106,100.031,-0.0020100
22.9,249.539,12.105,100.031,-0.0012363
22.95,250.039,12.105,100.03,-0.0012363
23,250.539,12.105,100.029,-0.0018782
23.05,251.039,12.105,100.028,-0.0015113
23.1,251.54,12.105,100.028,-0.0017402
23.15,252.04,12.105,100.027,-0.0013768
23.2,252.54,12.105,100.026,-0.0025641
23.25,253.04,12.105,100.026,-0.0009626
23.3,253.54,12.105,100.025,-0.0014210
23.35,254.04,12.105,100.024,-0.0022887
23.4,254.54,12.105,100.023,-0.0016484
23.45,255.04,12.104,100.023,-0.0015119
23.5,255.54,12.104,100.022,-0.0010096
23.55,256.04,12.104,100.021,-0.0021990
23.6,256.54,12.104,100.02,-0.0016056
23.65,257.041,12.104,100.02,-0.0010551
23.7,257.541,12.104,100.019,-0.0015596
23.75,258.041,12.104,100.018,-0.0013736
23.8,258.541,12.104,100.017,-0.0013278
23.85,259.041,12.104,100.017,-0.0015102
23.9,259.541,12.104,100.016,-0.0017422
23.95,260.041,12.104,100.015,-0.0018775
24,260.541,12.103,100.014,-0.0018755
24.05,261.041,12.103,100.014,-0.0014621
24.1,261.541,12.103,100.013,-0.0011914
24.15,262.041,12.103,100.012,-0.0017834
24.2,262.542,12.103,100.011,-0.0009621
24.25,263.042,12.103,100.01,-0.0023352
24.3,263.542,12.103,100.009,-0.0017428
24.35,264.042,12.103,100.009,-0.0022965
24.4,264.542,12.103,100.008,-0.0017409
24.45,265.042,12.103,100.007,-0.0017399
24.5,265.542,12.102,100.006,-0.0017880
24.55,266.042,12.102,100.006,-0.0011485
24.6,266.542,12.102,100.005,-0.0017410
24.65,267.042,12.102,100.004,-0.0011009
24.7,267.542,12.102,100.003,-0.0011462
24.75,268.043,12.102,100.002,-0.0013278
24.8,268.543,12.102,100.002,-0.0014176
24.85,269.043,12.102,100.001,-0.0013291
24.9,269.543,12.102,100,-0.0018325
24.95,270.043,12.102,99.999,-0.0016067
25,270.543,12.101,99.998,-0.0018322
25.05,271.043,12.101,99.997,-0.0018780
25.1,271.543,12.101,99.996,-0.0025632
25.15,272.043,12.101,99.995,-0.0020110
25.2,272.543,12.101,99.994,-0.0016017
25.25,273.043,12.101,99.993,-0.0015996
25.3,273.543,12.101,99.992,-0.0021951
25.35,274.044,12.101,99.991,-0.0020136
25.4,274.544,12.101,99.99,-0.0022489
25.45,275.044,12.1,99.989,-0.0021990
25.5,275.544,12.1,99.988,-0.0020680
25.55,276.044,12.1,99.987,-0.0020712
25.6,276.544,12.1,99.986,-0.0016994
25.65,277.044,12.1,99.985,-0.0024734
25.7,277.544,12.1,99.984,-0.0017390
25.75,278.044,12.1,99.984,-0.0021024
25.8,278.544,12.1,99.982,-0.0029728
25.85,279.044,12.099,99.981,-0.0019231
25.9,279.545,12.099,99.98,-0.0018824
25.95,280.045,12.099,99.98,-0.0022429
26,280.545,12.099,99.978,-0.0020625
26.05,281.045,12.099,99.977,-0.0019699
26.1,281.545,12.099,99.976,-0.0020692
26.15,282.045,12.099,99.975,-0.0033500
26.2,282.545,12.099,99.974,-0.0016073
26.25,283.045,12.098,99.973,-0.0025666
26.3,283.545,12.098,99.972,-0.0016932
26.35,284.045,12.098,99.971,-0.0026605
26.4,284.545,12.098,99.97,-0.0016499
26.45,285.046,12.098,99.969,-0.0021500
26.5,285.546,12.098,99.968,-0.0020117
26.55,286.046,12.098,99.967,-0.0016493
26.6,286.546,12.098,99.966,-0.0024748
26.65,287.046,12.097,99.965,-0.0023385
26.7,287.546,12.097,99.964,-0.0017447
26.75,288.046,12.097,99.963,-0.0023340
26.8,288.546,12.097,99.962,-0.0019733
26.85,289.046,12.097,99.961,-0.0024739
26.9,289.546,12.097,99.96,-0.0024210
26.95,290.046,12.097,99.959,-0.0015558
27,290.547,12.097,99.957,-0.0023394
27.05,291.047,12.096,99.956,-0.0020616
27.1,291.547,12.096,99.955,-0.0019213
27.16,292.047,12.096,99.954,-0.0017900
27.21,292.547,12.096,99.953,-0.0033883
27.26,293.047,12.096,99.951,-0.0025148
27.31,293.547,12.096,99.95,-0.0027915
27.36,294.047,12.096,99.949,-0.0035173
27.41,294.547,12.095,99.948,-0.0022923
27.46,295.047,12.095,99.947,-0.0024210
27.51,295.547,12.095,99.946,-0.0021493
27.56,296.048,12.095,99.945,-0.0023338
27.6,296.548,12.095,99.943,-0.0023344
27.66,297.048,12.095,99.942,-0.0032034
27.71,297.548,12.095,99.941,-0.0039393
27.76,298.048,12.094,99.94,-0.0022927
27.81,298.548,12.094,99.939,-0.0019259
27.86,299.048,12.094,99.937,-0.0018332
27.91,299.548,12.094,99.936,-0.0030275
27.96,300.048,12.094,99.935,-0.0026990
28.01,300.548,12.094,99.934,-0.0027433
28.06,301.048,12.094,99.933,-0.0027905
28.11,301.548,12.093,99.931,-0.0026109
28.16,302.049,12.093,99.93,-0.0029277
28.21,302.549,12.093,99.929,-0.0019689
28.26,303.049,12.093,99.927,-0.0033377
28.31,303.549,12.093,99.926,-0.0023875
28.36,304.049,12.093,99.924,-0.0032509
28.41,304.549,12.092,99.922,-0.0034785
28.46,305.049,12.092,99.921,-0.0038848
28.51,305.549,12.092,99.919,-0.0027064
28.56,306.049,12.092,99.917,-0.0031692
28.61,306.549,12.092,99.916,-0.0032580
28.66,307.049,12.091,99.914,-0.0039341
28.71,307.55,12.091,99.913,-0.0036584
28.76,308.05,12.091,99.912,-0.0024258
28.81,308.55,12.091,99.91,-0.0031096
28.86,309.05,12.091,99.909,-0.0023309
28.91,309.55,12.091,99.908,-0.0026571
28.96,310.05,12.09,99.906,-0.0019691
29.01,310.55,12.09,99.905,-0.0023845
29.06,311.05,12.09,99.904,-0.0023382
29.11,311.55,12.09,99.902,-0.0024267
29.16,312.05,12.09,99.901,-0.0023831
29.21,312.55,12.09,99.899,-0.0022031
29.26,313.051,12.089,99.898,-0.0026113
29.31,313.551,12.089,99.897,-0.0027462
29.36,314.051,12.089,99.895,-0.0022407
29.41,314.551,12.089,99.894,-0.0021505
29.46,315.051,12.089,99.893,-0.0033413
29.51,315.551,12.089,99.891,-0.0029277
29.56,316.051,12.088,99.89,-0.0027452
29.61,316.551,12.088,99.888,-0.0034308
29.66,317.051,12.088,99.887,-0.0028399
29.71,317.551,12.088,99.886,-0.0024766
29.76,318.051,12.088,99.884,-0.0023836
29.81,318.552,12.088,99.883,-0.0018790
29.86,319.052,12.087,99.882,-0.0025655
29.91,319.552,12.087,99.88,-0.0032034
29.96,320.052,12.087,99.879,-0.0030236
30.01,320.552,12.087,99.877,-0.0025641
30.06,321.052,12.087,99.876,-0.0026533
30.11,321.552,12.087,99.875,-0.0030192
30.16,322.052,12.086,99.873,-0.0032967
30.21,322.552,12.086,99.872,-0.0036543
30.26,323.052,12.086,99.87,-0.0029764
30.31,323.552,12.086,99.869,-0.0040751
30.36,324.053,12.086,99.867,-0.0026586
30.41,324.553,12.085,99.866,-0.0026161
30.46,325.053,12.085,99.865,-0.0028862
30.51,325.553,12.085,99.863,-0.0029789
30.56,326.053,12.085,99.861,-0.0041670
30.61,326.553,12.085,99.86,-0.0024322
30.66,327.053,12.085,99.859,-0.0031136
30.71,327.553,12.084,99.857,-0.0026122
30.76,328.053,12.084,99.855,-0.0027940
30.81,328.553,12.084,99.854,-0.0039340
30.86,329.053,12.084,99.853,-0.0022449
30.91,329.553,12.084,99.851,-0.0031182
30.96,330.054,12.084,99.85,-0.0029374
31.01,330.554,12.083,99.848,-0.0031193
31.06,331.054,12.083,99.847,-0.0033400
31.11,331.554,12.083,99.845,-0.0030678
31.16,332.054,12.083,99.843,-0.0025608
31.21,332.554,12.083,99.842,-0.0033334
31.26,333.054,12.082,99.84,-0.0031553
31.31,333.554,12.082,99.839,-0.0037477
31.36,334.054,12.082,99.837,-0.0027915
31.41,334.554,12.082,99.836,-0.0031575
31.46,335.054,12.082,99.834,-0.0033039
31.51,335.555,12.081,99.832,-0.0035734
31.56,336.055,12.081,99.831,-0.0040257
31.61,336.555,12.081,99.829,-0.0028388
31.66,337.055,12.081,99.827,-0.0038370
31.71,337.555,12.081,99.826,-0.0027015
31.76,338.055,12.08,99.824,-0.0032937
31.81,338.555,12.08,99.823,-0.0032509
31.86,339.055,12.08,99.821,-0.0032967
31.91,339.555,12.08,99.819,-0.0029811
31.96,340.055,12.08,99.818,-0.0034907
32.01,340.555,12.079,99.816,-0.0027513
32.06,341.056,12.079,99.814,-0.0033834
32.11,341.556,12.079,99.812,-0.0025151
32.16,342.056,12.079,99.811,-0.0035309
32.21,342.556,12.079,99.809,-0.0029288
32.26,343.056,12.078,99.807,-0.0042025
32.31,343.556,12.078,99.805,-0.0039305
32.36,344.056,12.078,99.804,-0.0040279
32.41,344.556,12.078,99.802,-0.0039908
32.46,345.056,12.078,99.8,-0.0030695
32.51,345.556,12.077,99.798,-0.0032080
32.56,346.056,12.077,99.797,-0.0037990
32.61,346.557,12.077,99.795,-0.0035321
32.66,347.057,12.077,99.793,-0.0040871
32.71,347.557,12.076,99.791,-0.0041172
32.76,348.057,12.076,99.789,-0.0052123
32.81,348.557,12.076,99.787,-0.0036596
32.86,349.057,12.076,99.785,-0.0040344
32.91,349.557,12.075,99.783,-0.0040751
32.96,350.057,12.075,99.781,-0.0044790
33.01,350.557,12.075,99.779,-0.0040736
33.06,351.057,12.075,99.777,-0.0043852
33.11,351.557,12.074,99.775,-0.0038884
33.16,352.058,12.074,99.772,-0.0043459
33.21,352.558,12.074,99.77,-0.0034372
33.26,353.058,12.074,99.768,-0.0047248
33.31,353.558,12.073,99.766,-0.0043602
33.36,354.058,12.073,99.764,-0.0041262
33.41,354.558,12.073,99.762,-0.0046661
33.46,355.058,12.073,99.759,-0.0043932
33.51,355.558,12.072,99.757,-0.0041636
33.56,356.058,12.072,99.755,-0.0034779
33.61,356.558,12.072,99.753,-0.0047101
33.66,357.058,12.071,99.75,-0.0042559
33.71,357.558,12.071,99.748,-0.0045288
33.76,358.059,12.071,99.745,-0.0041667
33.81,358.559,12.071,99.743,-0.0044037
33.86,359.059,12.07,99.74,-0.0043553
33.91,359.559,12.07,99.738,-0.0042645
33.96,360.059,12.07,99.736,-0.0043578
34.01,360.559,12.069,99.733,-0.0057339
34.06,361.059,12.069,99.731,-0.0050523
34.11,361.559,12.069,99.728,-0.0041284
34.16,362.059,12.068,99.725,-0.0052217
34.21,362.559,12.068,99.723,-0.0050366
34.26,363.059,12.068,99.72,-0.0049863
34.31,363.56,12.068,99.717,-0.0053046
34.36,364.06,12.067,99.715,-0.0056725
34.41,364.56,12.067,99.712,-0.0057639
34.46,365.06,12.067,99.709,-0.0059535
34.51,365.56,12.066,99.706,-0.0063645
34.56,366.06,12.066,99.703,-0.0060036
34.61,366.56,12.065,99.7,-0.0059066
34.66,367.06,12.065,99.697,-0.0067803
34.71,367.56,12.065,99.694,-0.0069177
34.76,368.06,12.064,99.69,-0.0061813
34.81,368.56,12.064,99.687,-0.0061389
34.86,369.061,12.063,99.684,-0.0063796
34.91,369.561,12.063,99.681,-0.0068770
34.96,370.061,12.063,99.677,-0.0069751
35.01,370.561,12.062,99.674,-0.0073070
35.06,371.061,12.062,99.67,-0.0071718
35.11,371.561,12.061,99.667,-0.0072571
35.16,372.061,12.061,99.663,-0.0091453
35.21,372.561,12.06,99.659,-0.0062097
35.26,373.061,12.06,99.655,-0.0074839
35.31,373.561,12.06,99.652,-0.0081697
35.36,374.061,12.059,99.648,-0.0081802
35.41,374.562,12.059,99.644,-0.0088581
35.46,375.062,12.058,99.639,-0.0088403
35.51,375.562,12.058,99.635,-0.0090037
35.56,376.062,12.057,99.631,-0.0084202
35.61,376.562,12.057,99.627,-0.0089042
35.66,377.062,12.056,99.622,-0.0092020
35.71,377.562,12.055,99.618,-0.0099690
35.76,378.062,12.055,99.613,-0.0087352
35.81,378.562,12.054,99.608,-0.0099365
35.86,379.062,12.054,99.603,-0.0096364
35.91,379.562,12.053,99.598,-0.0105456
35.96,380.063,12.052,99.593,-0.0096784
36.01,380.563,12.052,99.588,-0.0112788
36.06,381.063,12.051,99.583,-0.0101548
36.11,381.563,12.051,99.577,-0.0131673
36.16,382.063,12.05,99.571,-0.0108023
36.21,382.563,12.049,99.565,-0.0121049
36.26,383.063,12.048,99.559,-0.0124726
36.31,383.563,12.048,99.553,-0.0128546
36.36,384.063,12.047,99.547,-0.0128710
36.41,384.563,12.046,99.54,-0.0135197
36.46,385.063,12.045,99.534,-0.0131073
36.51,385.563,12.044,99.527,-0.0131915
36.56,386.064,12.044,99.52,-0.0135914
36.61,386.564,12.043,99.513,-0.0143368
36.66,387.064,12.042,99.505,-0.0147113
36.71,387.564,12.041,99.498,-0.0151473
36.76,388.064,12.04,99.49,-0.0146062
36.81,388.564,12.039,99.483,-0.0156909
36.86,389.064,12.038,99.474,-0.0161541
36.91,389.564,12.037,99.466,-0.0167125
36.96,390.064,12.036,99.458,-0.0173235
37.01,390.564,12.035,99.449,-0.0179128
37.06,391.064,12.034,99.441,-0.0173394
37.11,391.565,12.033,99.432,-0.0182692
37.16,392.065,12.032,99.423,-0.0189380
37.21,392.565,12.031,99.413,-0.0184761
37.26,393.065,12.03,99.404,-0.0190507
37.31,393.565,12.028,99.394,-0.0202492
37.36,394.065,12.027,99.384,-0.0203558
37.41,394.565,12.026,99.374,-0.0204288
37.46,395.065,12.025,99.363,-0.0210777
37.51,395.565,12.023,99.353,-0.0216315
37.56,396.065,12.022,99.342,-0.0222527
37.61,396.565,12.021,99.33,-0.0228645
37.66,397.066,12.019,99.319,-0.0241493
37.71,397.566,12.018,99.307,-0.0239162
37.76,398.066,12.016,99.295,-0.0243221
37.81,398.566,12.015,99.283,-0.0248855
37.86,399.066,12.013,99.27,-0.0257864
37.91,399.566,12.012,99.257,-0.0259520
37.96,400.066,12.01,99.244,-0.0263882
38.01,400.566,12.009,99.231,-0.0271211
38.06,401.066,12.007,99.217,-0.0291751
38.11,401.566,12.005,99.203,-0.0283373
38.16,402.066,12.003,99.188,-0.0306262
38.21,402.567,12.002,99.173,-0.0302546
38.26,403.067,12,99.158,-0.0309868
38.31,403.567,11.998,99.142,-0.0318974
38.36,404.067,11.996,99.126,-0.0342033
38.41,404.567,11.994,99.109,-0.0329055
38.46,405.067,11.992,99.092,-0.0347719
38.51,405.567,11.99,99.075,-0.0344511
38.56,406.067,11.988,99.057,-0.0364146
38.61,406.567,11.985,99.039,-0.0374084
38.66,407.067,11.983,99.02,-0.0382677
38.71,407.567,11.981,99.001,-0.0399634
38.76,408.068,11.978,98.98,-0.0413306
38.81,408.568,11.976,98.96,-0.0427523
38.86,409.068,11.973,98.938,-0.0456003
38.91,409.568,11.97,98.915,-0.0473245
38.96,410.068,11.968,98.891,-0.0470497
39.01,410.568,11.965,98.867,-0.0489737
39.06,411.068,11.962,98.842,-0.0503940
39.11,411.568,11.958,98.817,-0.0519689
39.16,412.068,11.955,98.791,-0.0524053
39.21,412.568,11.952,98.764,-0.0529417
39.26,413.068,11.949,98.737,-0.0546417
39.31,413.568,11.946,98.709,-0.0566667
39.36,414.069,11.942,98.681,-0.0568867
39.41,414.569,11.939,98.652,-0.0602503
39.46,415.069,11.935,98.622,-0.0596763
39.51,415.569,11.931,98.592,-0.0606809
39.56,416.069,11.928,98.562,-0.0627289
39.61,416.569,11.924,98.531,-0.0635182
39.66,417.069,11.92,98.499,-0.0632326
39.71,417.569,11.916,98.467,-0.0651061
39.76,418.069,11.912,98.434,-0.0672550
39.81,418.569,11.908,98.4,-0.0683355
39.86,419.069,11.904,98.366,-0.0702011
39.91,419.57,11.9,98.33,-0.0711081
39.96,420.07,11.895,98.294,-0.0733760
40.01,420.57,11.891,98.258,-0.0743873
40.06,421.07,11.886,98.22,-0.0768246
40.11,421.57,11.882,98.181,-0.0784107
40.16,422.07,11.877,98.142,-0.0796703
40.21,422.57,11.872,98.102,-0.0814550
40.26,423.07,11.867,98.06,-0.0844780
40.31,423.57,11.862,98.018,-0.0932016
40.36,424.07,11.857,97.974,-0.0881035
40.41,424.57,11.851,97.929,-0.0993315
40.46,425.071,11.845,97.88,-0.1140720
40.51,425.571,11.839,97.829,-0.1192210
40.56,426.071,11.833,97.776,-0.1148640
40.61,426.571,11.826,97.72,-0.1193640
40.66,427.071,11.819,97.66,-0.1248170
40.71,427.571,11.811,97.597,-0.1369680
40.76,428.071,11.803,97.532,-0.1400180
40.81,428.571,11.795,97.465,-0.1299450
40.86,429.071,11.787,97.395,-0.1543590
40.91,429.571,11.778,97.326,-0.1343570
40.96,430.071,11.769,97.253,-0.1518060
41.01,430.572,11.76,97.179,-0.1405530
41.06,431.072,11.751,97.102,-0.1516930
41.11,431.572,11.741,97.022,-0.1543140
41.16,432.072,11.731,96.938,-0.1749910
41.21,432.572,11.721,96.853,-0.1765380
41.26,433.072,11.71,96.765,-0.1798940
41.31,433.572,11.699,96.673,-0.1885990
41.36,434.072,11.687,96.576,-0.1948000
41.41,434.572,11.675,96.478,-0.1881980
41.46,435.072,11.663,96.379,-0.2055520
41.51,435.572,11.651,96.275,-0.2122980
41.56,436.073,11.637,96.164,-0.2099720
41.61,436.573,11.624,96.049,-0.2362550
41.66,437.073,11.609,95.925,-0.2568620
41.71,437.573,11.593,95.795,-0.2706690
41.76,438.073,11.576,95.657,-0.2876520
41.81,438.573,11.558,95.509,-0.2995410
41.86,439.073,11.539,95.348,-0.3480810
41.91,439.573,11.518,95.178,-0.3467110
41.96,440.073,11.496,94.996,-0.3589760
42.01,440.573,11.474,94.809,-0.4032160
42.06,441.073,11.449,94.607,-0.4221930
42.11,441.573,11.422,94.387,-0.4529710
42.16,442.074,11.394,94.151,-0.5019680
42.21,442.574,11.363,93.9,-0.5128440
42.26,443.074,11.333,93.647,-0.4920700
42.31,443.574,11.303,93.399,-0.5022910
42.36,444.074,11.272,93.141,-0.5432180
42.41,444.574,11.24,92.876,-0.5688190
42.46,445.074,11.205,92.59,-0.5793090
42.51,445.574,11.171,92.306,-0.5763250
42.56,446.074,11.136,92.018,-0.6241320
42.61,446.574,11.099,91.714,-0.6233060
42.66,447.074,11.06,91.39,-0.6764190
42.71,447.575,11.02,91.058,-0.6494860
42.76,448.075,10.979,90.721,-0.6647890
42.81,448.575,10.938,90.381,-0.7119050
42.86,449.075,10.895,90.026,-0.7533380
42.91,449.575,10.848,89.639,-0.8279760
42.96,450.075,10.799,89.235,-0.8017720
43.01,450.575,10.748,88.814,-0.8912720
43.06,451.075,10.694,88.371,-0.9559980
43.11,451.575,10.64,87.919,-0.9262820
43.16,452.075,10.582,87.443,-0.9794670
43.21,452.575,10.521,86.939,-1.02413
43.26,453.076,10.456,86.402,-1.03158
43.31,453.576,10.391,85.867,-1.10971
43.36,454.076,10.324,85.307,-1.1913
43.41,454.576,10.253,84.725,-1.19032
43.46,455.076,10.18,84.119,-1.19756
43.51,455.576,10.103,83.484,-1.30904
43.56,456.076,10.023,82.821,-1.43235
43.61,456.576,9.938,82.118,-1.52522
43.66,457.076,9.848,81.381,-1.43935
43.71,457.576,9.755,80.605,-1.46163
43.76,458.076,9.663,79.851,-1.56688
43.81,458.577,9.565,79.041,-1.69699
43.86,459.077,9.462,78.19,-1.78816
43.91,459.577,9.353,77.284,-1.81844
43.96,460.077,9.24,76.356,-1.83283
44.01,460.577,9.126,75.41,-1.92129
44.06,461.077,9.006,74.418,-2.02292
44.11,461.577,8.884,73.408,-2.04809
44.16,462.077,8.752,72.316,-2.15987
44.21,462.577,8.617,71.205,-2.29894
44.26,463.077,8.474,70.026,-2.47678
44.31,463.577,8.325,68.794,-2.50059
44.36,464.078,8.168,67.497,-2.63238
44.41,464.578,8.005,66.149,-2.78157
44.46,465.078,7.836,64.752,-2.74949
44.51,465.578,7.664,63.326,-2.91875
44.56,466.078,7.477,61.786,-3.15576
44.61,466.578,7.264,60.028,-3.97232
44.66,467.078,7.021,58.013,-4.05717
44.71,467.578,6.786,56.072,-3.96551
44.76,468.078,6.538,54.021,-4.05964
44.81,468.578,6.301,52.065,-4.02588
44.86,469.078,6.061,50.081,-3.91023
44.92,469.578,5.811,48.019,-4.04931
44.97,470.079,5.568,46.012,-4.03045
45.01,470.579,5.321,43.971,-4.55714
45.06,471.079,5.016,41.446,-4.69934
45.11,471.579,4.76,39.337,-2.72791
45.16,472.079,4.578,37.828,-3.08857
45.21,472.579,4.381,36.197,-3.28382
45.26,473.079,4.168,34.44,-3.41294
45.31,473.579,3.949,32.636,-3.59439
45.36,474.079,3.727,30.798,-3.73512
45.41,474.579,3.499,28.913,-3.91438
45.46,475.079,3.259,26.929,-4.03536
45.51,475.58,3.01,24.872,-4.10233
45.56,476.08,2.77,22.888,-4.00482
45.61,476.58,2.516,20.787,-3.672
45.66,477.08,2.295,18.964,-3.77787
45.71,477.58,2.067,17.078,-3.79269
45.76,478.08,1.845,15.244,-3.37074
45.81,478.58,1.647,13.609,-3.14356
45.86,479.08,1.465,12.104,-2.82855
45.91,479.58,1.286,10.624,-2.90332
45.96,480.08,1.116,9.225,-2.7515
46.01,480.58,0.9480000,7.837,-2.59908
46.06,481.081,0.7910000,6.54,-2.39307
46.11,481.581,0.6630000,5.478,-2.1335
46.16,482.081,0.5390000,4.458,-1.90715
46.2,482.581,0.4340000,3.582,-1.70024
46.25,483.081,0.3390000,2.799,-1.41441
46.3,483.581,0.2590000,2.14,-1.21485
46.35,484.081,0.1950000,1.612,-0.9696920
46.4,484.581,0.1420000,1.174,-0.6668210
46.45,485.081,0.1010000,0.8370000,-0.5675300
46.5,485.581,0.0730000,0.6020000,-0.4155630
46.55,486.081,0.0520000,0.4310000,-0.2569310
46.6,486.582,0.0390000,0.3210000,-0.1496650
46.65,487.082,0.0310000,0.2550000,-0.0954130
46.7,487.582,0.0260000,0.2160000,-0.0637090
46.75,488.082,0.0230000,0.1920000,-0.0461067
46.8,488.582,0.0200000,0.1690000,-0.0450472
46.85,489.082,0.0180000,0.1470000,-0.0416108
46.9,489.582,0.0150000,0.1270000,-0.0358722
46.95,490.082,0.0130000,0.1100000,-0.0296077
47,490.582,0.0120000,0.0970000,-0.0238783
47.06,491.082,0.0100000,0.0860000,-0.0202102
47.11,491.582,0.0090000,0.0780000,-0.0149262
47.16,492.083,0.0090000,0.0720000,-0.0116353
47.21,492.583,0.0080000,0.0670000,-0.0084000
47.26,493.083,0.0080000,0.0630000,-0.0065687
47.31,493.583,0.0070000,0.0600000,-0.0047345
47.36,494.083,0.0070000,0.0570000,-0.0040093
47.41,494.583,0.0070000,0.0560000,-0.0034112
47.46,495.083,0.0070000,0.0540000,-0.0025035
47.51,495.583,0.0060000,0.0530000,-0.0014369
47.56,496.083,0.0060000,0.0520000,-0.0019036
47.61,496.583,0.0060000,0.0520000,-0.0014733
47.66,497.083,0.0060000,0.0510000,-0.0010185
47.71,497.583,0.0060000,0.0510000,-0.0008715
47.76,498.084,0.0060000,0.0510000,-0.0002592
47.81,498.584,0.0060000,0.0500000,0.0001165
47.86,499.084,0.0060000,0.0500000,-0.0006883
47.91,499.584,0.0060000,0.0500000,0.0004953
47.96,500.084,0.0060000,0.0500000,-0.0017362
48.01,500.584,0.0060000,0.0500000,-0.0001153
48.06,501.084,0.0060000,0.0500000,0.0003382
48.11,501.584,0.0060000,0.0500000,-0.0003765
48.16,502.084,0.0060000,0.0500000,-0.0004739
48.21,502.584,0.0060000,0.0500000,-0.0005232
48.26,503.084,0.0060000,0.0500000,0.0003842
48.31,503.585,0.0060000,0.0500000,0.0002228
48.36,504.085,0.0060000,0.0500000,-0.0011936
48.41,504.585,0.0060000,0.0500000,0.0000632
48.46,505.085,0.0060000,0.0500000,-0.0004537
48.51,505.585,0.0060000,0.0500000,-0.0004369
48.56,506.085,0.0060000,0.0500000,0.0013310
48.61,506.585,0.0060000,0.0510000,0.0001868
48.66,507.085,0.0060000,0.0510000,-0.0001116
48.71,507.585,0.0060000,0.0510000,-0.0001453
48.76,508.085,0.0060000,0.0510000,0.0000761
48.81,508.585,0.0060000,0.0510000,0.0011064
48.86,509.086,0.0060000,0.0510000,0.0010311
48.91,509.586,0.0060000,0.0520000,0.0002571
48.96,510.086,0.0060000,0.0520000,0.0004635
49.01,510.586,0.0060000,0.0520000,-0.0007883
49.06,511.086,0.0060000,0.0520000,0.0008458
49.11,511.586,0.0060000,0.0520000,-0.0002509
49.16,512.086,0.0060000,0.0520000,-0.0012602
49.21,512.586,0.0060000,0.0520000,-0.0000928
49.26,513.086,0.0060000,0.0520000,-0.0005646
49.31,513.586,0.0060000,0.0520000,0.0000838
49.36,514.086,0.0060000,0.0520000,-0.0002290
49.41,514.587,0.0060000,0.0520000,0.0008624
49.46,515.087,0.0060000,0.0520000,0.0004388
49.51,515.587,0.0060000,0.0520000,0.0004893
49.56,516.087,0.0060000,0.0520000,-0.0001766
49.61,516.587,0.0060000,0.0530000,0.0005031
49.66,517.087,0.0060000,0.0530000,0.0007642
49.71,517.587,0.0060000,0.0530000,0.0010627
49.76,518.087,0.0060000,0.0530000,0.0004679
49.81,518.587,0.0060000,0.0530000,-0.0007173
49.86,519.087,0.0060000,0.0530000,-0.0003535
49.91,519.587,0.0060000,0.0530000,0.0002596
49.96,520.088,0.0060000,0.0540000,-0.0001010
50.01,520.588,0.0060000,0.0540000,0.0000357
50.06,521.088,0.0060000,0.0540000,-0.0000216
50.11,521.588,0.0070000,0.0540000,0.0002953
50.16,522.088,0.0070000,0.0540000,0.0001628
50.21,522.588,0.0070000,0.0540000,0.0004273
50.26,523.088,0.0070000,0.0540000,-0.0002499
50.31,523.588,0.0070000,0.0540000,-0.0000845
50.36,524.088,0.0070000,0.0540000,0.0006513
50.41,524.588,0.0070000,0.0540000,0.0001730
50.46,525.088,0.0070000,0.0540000,0.0002085
50.51,525.588,0.0070000,0.0540000,0.0004287
50.56,526.089,0.0070000,0.0550000,0.0010116
50.61,526.589,0.0070000,0.0550000,-0.0025030
50.66,527.089,0.0070000,0.0550000,0.0003025
50.71,527.589,0.0070000,0.0550000,-0.0007379
50.76,528.089,0.0070000,0.0550000,0.0003710
50.81,528.589,0.0070000,0.0550000,-0.0005476
50.86,529.089,0.0070000,0.0550000,-0.0001445
50.91,529.589,0.0070000,0.0550000,-0.0003473
50.96,530.089,0.0070000,0.0540000,-0.0013385
51.01,530.589,0.0070000,0.0550000,0.0009936
51.06,531.089,0.0070000,0.0550000,0.0004481
51.11,531.59,0.0070000,0.0550000,-0.0003211
51.16,532.09,0.0070000,0.0550000,-0.0002032
51.21,532.59,0.0070000,0.0550000,-0.0004920
51.26,533.09,0.0070000,0.0540000,-0.0016785
51.31,533.59,0.0070000,0.0540000,-0.0000084
51.36,534.09,0.0060000,0.0540000,-0.0006771
51.41,534.59,0.0060000,0.0530000,-0.0001894
51.46,535.09,0.0060000,0.0530000,-0.0000962
51.51,535.59,0.0060000,0.0530000,-0.0005620
51.56,536.09,0.0060000,0.0530000,-0.0021417
51.61,536.59,0.0060000,0.0530000,0.0001434
51.66,537.091,0.0060000,0.0530000,-0.0003250
51.71,537.591,0.0060000,0.0530000,0.0000997
51.76,538.091,0.0060000,0.0530000,-0.0001052
51.81,538.591,0.0060000,0.0530000,-0.0000946
51.86,539.091,0.0060000,0.0530000,-0.0001367
51.91,539.591,0.0060000,0.0540000,0.0013272
51.96,540.091,0.0060000,0.0540000,-0.0006051
52.01,540.591,0.0060000,0.0540000,-0.0000883
52.06,541.091,0.0060000,0.0540000,-0.0000589
52.11,541.591,0.0060000,0.0540000,0.0004419
52.16,542.091,0.0060000,0.0540000,0.0003567
52.21,542.592,0.0060000,0.0540000,-0.0009103
52.26,543.092,0.0070000,0.0540000,-0.0000067
52.31,543.592,0.0070000,0.0540000,0.0003737
52.36,544.092,0.0070000,0.0540000,-0.0006991
52.41,544.592,0.0070000,0.0540000,0.0001981
52.46,545.092,0.0070000,0.0540000,-0.0001369
52.51,545.592,0.0070000,0.0540000,-0.0000563
52.56,546.092,0.0070000,0.0540000,0.0003504
52.61,546.592,0.0070000,0.0540000,0.0001004
52.66,547.092,0.0070000,0.0550000,0.0007230
52.71,547.592,0.0070000,0.0550000,-0.0008902
52.76,548.093,0.0070000,0.0540000,0.0006592
52.81,548.593,0.0070000,0.0550000,0.0010432
52.86,549.093,0.0070000,0.0540000,-0.0004610
52.91,549.593,0.0070000,0.0540000,-0.0000059
52.96,550.093,0.0070000,0.0550000,-0.0002850
53.01,550.593,0.0070000,0.0540000,0.0002907
53.06,551.093,0.0070000,0.0540000,-0.0006517
53.11,551.593,0.0070000,0.0540000,-0.0004680
53.16,552.093,0.0070000,0.0540000,0.0007385
53.21,552.593,0.0070000,0.0540000,0.0005373
53.26,553.093,0.0070000,0.0540000,0.0001394
53.31,553.593,0.0070000,0.0540000,0.0004358
53.36,554.094,0.0070000,0.0550000,0.0013094
53.41,554.594,0.0070000,0.0550000,0.0028276
53.46,555.094,0.0070000,0.0560000,0.0015453
53.51,555.594,0.0070000,0.0570000,0.0005047
53.56,556.094,0.0070000,0.0570000,-0.0011382
53.61,556.594,0.0070000,0.0570000,0.0001149
53.66,557.094,0.0070000,0.0570000,0.0012300
53.71,557.594,0.0070000,0.0580000,0.0006157
53.76,558.094,0.0070000,0.0580000,-0.0006326
53.81,558.594,0.0070000,0.0580000,0.0000167
53.86,559.094,0.0070000,0.0580000,0.0005594
53.91,559.595,0.0070000,0.0580000,0.0008179
53.96,560.095,0.0070000,0.0580000,0.0001099
54.01,560.595,0.0070000,0.0580000,-0.0019045
54.06,561.095,0.0070000,0.0580000,-0.0006770
54.11,561.595,0.0070000,0.0580000,-0.0004521
54.16,562.095,0.0070000,0.0580000,-0.0000508
54.21,562.595,0.0070000,0.0580000,0.0001389
54.26,563.095,0.0070000,0.0570000,-0.0006602
54.31,563.595,0.0070000,0.0570000,-0.0000559
54.36,564.095,0.0070000,0.0580000,0.0014073
54.41,564.595,0.0070000,0.0570000,0.0002259
54.46,565.096,0.0070000,0.0580000,-0.0000515
54.51,565.596,0.0070000,0.0580000,-0.0001165
54.56,566.096,0.0070000,0.0580000,0.0002496
54.61,566.596,0.0070000,0.0580000,-0.0007959
54.66,567.096,0.0070000,0.0570000,0.0009325
54.71,567.596,0.0070000,0.0580000,0.0001455
54.76,568.096,0.0070000,0.0580000,-0.0000627
54.81,568.596,0.0070000,0.0580000,0.0000514
54.86,569.096,0.0070000,0.0580000,-0.0006449
54.91,569.596,0.0070000,0.0580000,0.0005378
54.96,570.096,0.0070000,0.0580000,0.0003368
55.01,570.597,0.0070000,0.0580000,0.0000030
55.06,571.097,0.0070000,0.0580000,-0.0014716
55.11,571.597,0.0070000,0.0580000,-0.0002314
55.16,572.097,0.0070000,0.0580000,0.0003352
55.21,572.597,0.0070000,0.0580000,-0.0004359
55.26,573.097,0.0070000,0.0580000,0.0003835
55.31,573.597,0.0070000,0.0580000,-0.0002638
55.36,574.097,0.0070000,0.0580000,-0.0006549
55.41,574.597,0.0070000,0.0580000,0.0001369
55.46,575.097,0.0070000,0.0580000,-0.0002719
55.51,575.597,0.0070000,0.0580000,-0.0004379
55.56,576.098,0.0070000,0.0580000,-0.0001851
55.61,576.598,0.0070000,0.0580000,-0.0002330
55.66,577.098,0.0070000,0.0570000,0.0000839
55.71,577.598,0.0070000,0.0570000,-0.0002769
55.76,578.098,0.0070000,0.0580000,0.0002724
55.81,578.598,0.0070000,0.0580000,-0.0003564
55.86,579.098,0.0070000,0.0580000,0.0001594
55.91,579.598,0.0070000,0.0580000,0.0004323
55.96,580.098,0.0070000,0.0580000,-0.0004612
56.01,580.598,0.0070000,0.0580000,-0.0002758
56.06,581.098,0.0070000,0.0580000,0.0001920
56.11,581.598,0.0070000,0.0580000,0.0008834
56.16,582.099,0.0070000,0.0580000,-0.0001763
56.21,582.599,0.0070000,0.0580000,0.0002218
56.26,583.099,0.0070000,0.0580000,0.0008741
56.31,583.599,0.0070000,0.0580000,-0.0002295
56.36,584.099,0.0070000,0.0580000,-0.0001453
56.41,584.599,0.0070000,0.0580000,0.0000982
56.46,585.099,0.0070000,0.0590000,0.0005099
56.51,585.599,0.0070000,0.0590000,0.0003797
56.56,586.099,0.0070000,0.0590000,0.0005755
56.61,586.599,0.0070000,0.0590000,0.0004132
56.66,587.099,0.0070000,0.0590000,0.0003379
56.71,587.6,0.0070000,0.0590000,0.0000861
56.76,588.1,0.0070000,0.0600000,0.0008785
56.81,588.6,0.0070000,0.0600000,0.0005918
56.86,589.1,0.0070000,0.0600000,0.0007955
56.91,589.6,0.0070000,0.0600000,0.0002202
56.94,590,0.0070000,0.0600000,0.0005249