File: R/rHDPE_App/app/www/Output/TGA/Condensed_Data/Resin2_2_.csv
0.8800000,30,14.726,100.031,0.0004112
0.9500000,30.5001,14.726,100.033,0.0063150
1.01,31.0002,14.726,100.035,0.0051138
1.07,31.5003,14.727,100.036,0.0034362
1.13,32.0004,14.727,100.037,0.0002149
1.18,32.5004,14.727,100.039,0.0027527
1.24,33.0005,14.727,100.04,0.0053323
1.3,33.5006,14.727,100.041,-0.0003100
1.36,34.0007,14.728,100.042,0.0036407
1.41,34.5008,14.728,100.043,0.0011710
1.47,35.0009,14.728,100.044,0.0030815
1.52,35.501,14.728,100.045,0.0007030
1.58,36.0011,14.728,100.046,0.0038420
1.63,36.5012,14.728,100.047,0.0002978
1.68,37.0013,14.728,100.048,0.0026691
1.74,37.5013,14.729,100.049,0.0017727
1.79,38.0014,14.729,100.05,0.0013261
1.84,38.5015,14.729,100.051,0.0034782
1.9,39.0016,14.729,100.051,0.0009284
1.95,39.5017,14.729,100.052,0.0013167
2.01,40.0018,14.729,100.053,0.0028700
2.06,40.5019,14.729,100.054,0.0011653
2.11,41.002,14.729,100.055,0.0010659
2.16,41.5021,14.73,100.055,0.0021268
2.22,42.0021,14.73,100.056,0.0018342
2.27,42.5022,14.73,100.057,0.0007228
2.32,43.0023,14.73,100.058,0.0015391
2.37,43.5024,14.73,100.058,0.0021136
2.43,44.0025,14.73,100.059,0.0011030
2.48,44.5026,14.73,100.06,0.0008622
2.53,45.0027,14.73,100.061,0.0020584
2.58,45.5028,14.73,100.062,0.0020080
2.64,46.0029,14.731,100.062,0.0015278
2.69,46.5029,14.731,100.063,0.0008109
2.74,47.003,14.731,100.064,0.0013343
2.79,47.5031,14.731,100.065,0.0023790
2.84,48.0032,14.731,100.065,0.0018066
2.89,48.5033,14.731,100.066,0.0013761
2.95,49.0034,14.731,100.067,0.0013269
3,49.5035,14.731,100.068,0.0013724
3.05,50.0036,14.731,100.068,0.0019862
3.1,50.5037,14.732,100.069,0.0022670
3.15,51.0038,14.732,100.07,0.0011317
3.21,51.5038,14.732,100.071,0.0015080
3.26,52.0039,14.732,100.071,0.0014592
3.31,52.504,14.732,100.072,0.0016457
3.36,53.0041,14.732,100.073,0.0012209
3.41,53.5042,14.732,100.074,0.0011257
3.46,54.0043,14.732,100.074,0.0006096
3.51,54.5044,14.732,100.075,0.0010306
3.56,55.0045,14.733,100.076,0.0017784
3.61,55.5046,14.733,100.076,0.0019167
3.67,56.0046,14.733,100.077,0.0016818
3.72,56.5047,14.733,100.078,0.0014472
3.77,57.0048,14.733,100.078,0.0010724
3.82,57.5049,14.733,100.079,0.0004195
3.87,58.005,14.733,100.08,0.0010710
3.92,58.5051,14.733,100.08,0.0014417
3.97,59.0052,14.733,100.081,0.0012554
4.02,59.5053,14.733,100.082,0.0016254
4.07,60.0054,14.733,100.082,0.0009743
4.12,60.5054,14.734,100.083,0.0007418
4.18,61.0055,14.734,100.083,0.0011124
4.23,61.5056,14.734,100.084,0.0012503
4.28,62.0057,14.734,100.085,0.0008792
4.33,62.5058,14.734,100.085,0.0016660
4.38,63.0059,14.734,100.086,0.0016183
4.43,63.506,14.734,100.086,0.0015712
4.48,64.0061,14.734,100.087,0.0010620
4.53,64.5062,14.734,100.087,0.0011545
4.58,65.0063,14.734,100.088,0.0013386
4.63,65.5063,14.734,100.089,0.0012912
4.68,66.0064,14.735,100.089,0.0008761
4.73,66.5065,14.735,100.09,0.0007833
4.78,67.0066,14.735,100.09,0.0012441
4.83,67.5067,14.735,100.091,0.0005987
4.88,68.0068,14.735,100.091,0.0009669
4.93,68.5069,14.735,100.092,0.0011501
4.98,69.007,14.735,100.093,0.0010120
5.03,69.5071,14.735,100.093,0.0004138
5.08,70.0071,14.735,100.094,0.0011949
5.13,70.5072,14.735,100.094,0.0007811
5.18,71.0073,14.735,100.094,0.0009184
5.23,71.5074,14.735,100.095,0.0008721
5.28,72.0075,14.735,100.095,0.0010095
5.33,72.5076,14.736,100.096,0.0013309
5.38,73.0077,14.736,100.096,0.0011928
5.43,73.5078,14.736,100.097,0.0011923
5.48,74.0079,14.736,100.097,0.0007794
5.53,74.5079,14.736,100.098,0.0016506
5.58,75.008,14.736,100.098,0.0009169
5.63,75.5081,14.736,100.098,0.0004584
5.68,76.0082,14.736,100.099,0.0007336
5.73,76.5083,14.736,100.099,0.0010538
5.78,77.0084,14.736,100.1,0.0002291
5.83,77.5085,14.736,100.1,0.0009165
5.88,78.0086,14.736,100.101,0.0008247
5.93,78.5087,14.736,100.101,0.0011912
5.98,79.0088,14.736,100.101,0.0008704
6.03,79.5088,14.736,100.102,0.0005954
6.08,80.0089,14.736,100.102,0.0012821
6.13,80.509,14.736,100.103,0.0005036
6.18,81.0091,14.737,100.103,0.0006867
6.23,81.5092,14.737,100.103,0.0007325
6.28,82.0093,14.737,100.104,0.0007325
6.33,82.5094,14.737,100.104,0.0010987
6.38,83.0095,14.737,100.104,0.0007327
6.43,83.5096,14.737,100.105,0.0004122
6.48,84.0096,14.737,100.105,0.0002748
6.53,84.5097,14.737,100.105,0.0006873
6.58,85.0098,14.737,100.106,0.0007328
6.63,85.5099,14.737,100.106,-0.0000916
6.69,86.01,14.737,100.106,0.0007789
6.74,86.5101,14.737,100.106,0.0010532
6.79,87.0102,14.737,100.107,0.0005493
6.84,87.5103,14.737,100.107,0.0003204
6.89,88.0104,14.737,100.107,0.0008702
6.94,88.5104,14.737,100.108,0.0000457
6.99,89.0105,14.737,100.108,0.0002744
7.04,89.5106,14.737,100.108,0.0007317
7.09,90.0107,14.737,100.108,0.0007777
7.14,90.5108,14.737,100.109,0.0007775
7.19,91.0109,14.737,100.109,0.0000914
7.24,91.511,14.737,100.109,0.0006856
7.29,92.0111,14.737,100.109,-0.0000914
7.34,92.5112,14.738,100.109,0.0005485
7.39,93.0113,14.738,100.11,0.0000457
7.44,93.5113,14.738,100.11,0.0004576
7.48,94.0114,14.738,100.11,-0.0001373
7.53,94.5115,14.738,100.11,0.0006863
7.58,95.0116,14.738,100.11,0.0000458
7.63,95.5117,14.738,100.111,0.0003204
7.68,96.0118,14.738,100.111,0.0004120
7.73,96.5119,14.738,100.111,0.0004120
7.78,97.012,14.738,100.111,-0.0001830
7.83,97.5121,14.738,100.112,0.0003660
7.88,98.0121,14.738,100.112,0.0000458
7.93,98.5122,14.738,100.112,0.0007786
7.98,99.0123,14.738,100.112,0.0000916
8.03,99.5124,14.738,100.112,0.0006412
8.08,100.013,14.738,100.112,0.0003204
8.14,100.513,14.738,100.113,0.0003207
8.19,101.013,14.738,100.113,0.0005039
8.24,101.513,14.738,100.113,-0.0002288
8.29,102.013,14.738,100.113,-0.0001373
8.34,102.513,14.738,100.113,0.0000916
8.39,103.013,14.738,100.113,0.0004578
8.44,103.513,14.738,100.113,-0.0001373
8.49,104.013,14.738,100.113,0.0000458
8.53,104.513,14.738,100.113,0.0001830
8.58,105.013,14.738,100.113,-0.0000458
8.63,105.513,14.738,100.113,-0.0004579
8.68,106.014,14.738,100.113,0.0002290
8.73,106.514,14.738,100.113,-0.0000000
8.78,107.014,14.738,100.113,-0.0000916
8.83,107.514,14.738,100.113,0.0001374
8.88,108.014,14.738,100.114,0.0000916
8.93,108.514,14.738,100.113,-0.0002748
8.98,109.014,14.738,100.114,0.0000916
9.03,109.514,14.738,100.114,0.0003206
9.08,110.014,14.738,100.114,0.0004579
9.13,110.514,14.738,100.114,0.0002747
9.18,111.014,14.738,100.114,0.0005498
9.23,111.515,14.738,100.114,0.0002747
9.28,112.015,14.738,100.114,0.0008244
9.33,112.515,14.738,100.114,0.0002289
9.38,113.015,14.738,100.114,-0.0001831
9.43,113.515,14.738,100.114,0.0001374
9.48,114.015,14.738,100.114,-0.0000916
9.53,114.515,14.738,100.114,0.0000000
9.58,115.015,14.738,100.113,0.0000917
9.63,115.515,14.738,100.113,-0.0002751
9.68,116.015,14.738,100.113,0.0001834
9.73,116.515,14.738,100.113,-0.0002294
9.78,117.016,14.738,100.113,-0.0004587
9.83,117.516,14.738,100.113,-0.0001835
9.88,118.016,14.738,100.113,0.0006424
9.93,118.516,14.738,100.113,-0.0000918
9.98,119.016,14.738,100.113,0.0003671
10.03,119.516,14.738,100.113,-0.0000917
10.08,120.016,14.738,100.113,-0.0003211
10.13,120.516,14.738,100.113,0.0004583
10.18,121.016,14.738,100.113,-0.0001374
10.23,121.516,14.738,100.113,-0.0000917
10.28,122.016,14.738,100.112,-0.0002292
10.33,122.517,14.738,100.112,0.0000000
10.38,123.017,14.738,100.112,-0.0001376
10.44,123.517,14.738,100.112,-0.0001377
10.49,124.017,14.738,100.112,-0.0002751
10.54,124.517,14.738,100.112,0.0000000
10.59,125.017,14.738,100.112,0.0003213
10.64,125.517,14.738,100.112,0.0003210
10.69,126.017,14.738,100.112,0.0002752
10.74,126.517,14.738,100.112,0.0000917
10.79,127.017,14.738,100.112,0.0003670
10.84,127.517,14.738,100.112,0.0005511
10.89,128.018,14.738,100.113,0.0000000
10.94,128.518,14.738,100.113,0.0003212
10.99,129.018,14.738,100.113,0.0000000
11.04,129.518,14.738,100.113,-0.0002293
11.09,130.018,14.738,100.113,-0.0000459
11.14,130.518,14.738,100.113,0.0003209
11.19,131.018,14.738,100.112,-0.0000916
11.24,131.518,14.738,100.112,-0.0004124
11.29,132.018,14.738,100.112,-0.0010391
11.34,132.518,14.738,100.112,0.0000452
11.38,133.018,14.738,100.112,-0.0006769
11.43,133.518,14.738,100.111,-0.0013980
11.48,134.019,14.738,100.111,0.0004986
11.53,134.519,14.738,100.111,-0.0006832
11.58,135.019,14.738,100.111,-0.0005012
11.63,135.519,14.738,100.11,-0.0005024
11.68,136.019,14.738,100.11,-0.0004117
11.73,136.519,14.737,100.109,-0.0020688
11.78,137.019,14.737,100.109,0.0001869
11.83,137.519,14.737,100.109,-0.0002807
11.89,138.019,14.737,100.109,-0.0016779
11.94,138.519,14.737,100.108,-0.0014381
11.99,139.019,14.737,100.107,-0.0017528
12.04,139.52,14.737,100.106,-0.0017871
12.09,140.02,14.737,100.105,-0.0021872
12.14,140.52,14.737,100.104,-0.0025395
12.19,141.02,14.737,100.103,-0.0021700
12.24,141.52,14.736,100.102,-0.0018953
12.29,142.02,14.736,100.101,-0.0024342
12.34,142.52,14.736,100.1,-0.0024346
12.38,143.02,14.736,100.099,-0.0027100
12.43,143.52,14.736,100.097,-0.0016299
12.48,144.02,14.736,100.096,-0.0016785
12.53,144.52,14.735,100.095,-0.0017277
12.58,145.021,14.735,100.094,-0.0014134
12.63,145.521,14.735,100.093,-0.0014620
12.68,146.021,14.735,100.092,-0.0011440
12.73,146.521,14.735,100.092,-0.0016511
12.78,147.021,14.735,100.091,-0.0019273
12.83,147.521,14.735,100.09,-0.0013794
12.88,148.021,14.735,100.089,-0.0019768
12.93,148.521,14.734,100.088,-0.0018399
12.98,149.021,14.734,100.087,-0.0016567
13.03,149.521,14.734,100.086,-0.0019302
13.08,150.021,14.734,100.086,-0.0017455
13.13,150.522,14.734,100.085,-0.0009192
13.18,151.022,14.734,100.084,-0.0015157
13.23,151.522,14.734,100.084,-0.0018820
13.28,152.022,14.734,100.083,-0.0013311
13.33,152.522,14.733,100.082,-0.0016984
13.38,153.022,14.733,100.081,-0.0013321
13.43,153.522,14.733,100.081,-0.0016536
13.49,154.022,14.733,100.08,-0.0012852
13.54,154.522,14.733,100.079,-0.0012397
13.59,155.022,14.733,100.079,-0.0016056
13.64,155.522,14.733,100.078,-0.0016052
13.69,156.023,14.733,100.077,-0.0014676
13.74,156.523,14.733,100.076,-0.0016970
13.79,157.023,14.733,100.076,-0.0012852
13.84,157.523,14.732,100.075,-0.0011477
13.89,158.023,14.732,100.074,-0.0008729
13.94,158.523,14.732,100.074,-0.0008730
13.99,159.023,14.732,100.073,-0.0015614
14.04,159.523,14.732,100.072,-0.0009646
14.09,160.023,14.732,100.071,-0.0011943
14.14,160.523,14.732,100.07,-0.0016514
14.19,161.023,14.732,100.07,-0.0012841
14.24,161.523,14.732,100.069,-0.0018789
14.29,162.024,14.731,100.068,-0.0018777
14.34,162.524,14.731,100.067,-0.0014192
14.39,163.024,14.731,100.067,-0.0020151
14.44,163.524,14.731,100.066,-0.0015114
14.49,164.024,14.731,100.065,-0.0015568
14.54,164.524,14.731,100.064,-0.0016036
14.59,165.024,14.731,100.063,-0.0012372
14.64,165.524,14.731,100.062,-0.0016962
14.69,166.024,14.73,100.062,-0.0016954
14.74,166.524,14.73,100.061,-0.0014679
14.79,167.024,14.73,100.06,-0.0018354
14.84,167.525,14.73,100.059,-0.0021087
14.89,168.025,14.73,100.058,-0.0013300
14.94,168.525,14.73,100.057,-0.0016952
14.99,169.025,14.73,100.057,-0.0016495
15.04,169.525,14.73,100.056,-0.0021534
15.09,170.025,14.729,100.055,-0.0020154
15.14,170.525,14.729,100.054,-0.0017874
15.19,171.025,14.729,100.053,-0.0013298
15.24,171.525,14.729,100.052,-0.0019249
15.29,172.025,14.729,100.051,-0.0017878
15.34,172.525,14.729,100.05,-0.0013752
15.39,173.026,14.729,100.05,-0.0016502
15.44,173.526,14.729,100.049,-0.0013745
15.49,174.026,14.728,100.048,-0.0018323
15.54,174.526,14.728,100.047,-0.0015114
15.59,175.026,14.728,100.046,-0.0021058
15.64,175.526,14.728,100.045,-0.0021049
15.69,176.026,14.728,100.044,-0.0023341
15.74,176.526,14.728,100.043,-0.0025646
15.79,177.026,14.728,100.042,-0.0019240
15.84,177.526,14.727,100.041,-0.0021520
15.89,178.026,14.727,100.04,-0.0019699
15.94,178.527,14.727,100.039,-0.0023827
15.99,179.027,14.727,100.038,-0.0024267
16.04,179.527,14.727,100.037,-0.0022446
16.09,180.027,14.727,100.036,-0.0018327
16.14,180.527,14.727,100.035,-0.0018778
16.19,181.027,14.726,100.034,-0.0021058
16.24,181.527,14.726,100.033,-0.0018323
16.29,182.027,14.726,100.032,-0.0019707
16.34,182.527,14.726,100.031,-0.0022454
16.39,183.027,14.726,100.03,-0.0021101
16.44,183.527,14.726,100.029,-0.0020618
16.49,184.028,14.725,100.028,-0.0024730
16.54,184.528,14.725,100.027,-0.0018790
16.59,185.028,14.725,100.026,-0.0021095
16.64,185.528,14.725,100.025,-0.0018786
16.69,186.028,14.725,100.024,-0.0021544
16.74,186.528,14.725,100.023,-0.0025190
16.79,187.028,14.725,100.021,-0.0020618
16.84,187.528,14.724,100.02,-0.0019712
16.89,188.028,14.724,100.019,-0.0017420
16.94,188.528,14.724,100.018,-0.0020166
16.99,189.028,14.724,100.017,-0.0016957
17.04,189.528,14.724,100.016,-0.0022458
17.09,190.029,14.724,100.015,-0.0016944
17.14,190.529,14.723,100.014,-0.0020604
17.19,191.029,14.723,100.013,-0.0016937
17.24,191.529,14.723,100.012,-0.0017404
17.29,192.029,14.723,100.011,-0.0023794
17.34,192.529,14.723,100.01,-0.0024730
17.39,193.029,14.723,100.009,-0.0025181
17.44,193.529,14.723,100.008,-0.0021999
17.49,194.029,14.722,100.006,-0.0019710
17.54,194.529,14.722,100.005,-0.0023363
17.59,195.029,14.722,100.004,-0.0017882
17.64,195.53,14.722,100.003,-0.0024272
17.69,196.03,14.722,100.002,-0.0024730
17.74,196.53,14.721,100.001,-0.0024750
17.79,197.03,14.721,99.999,-0.0019266
17.84,197.53,14.721,99.998,-0.0020171
17.89,198.03,14.721,99.997,-0.0018352
17.94,198.53,14.721,99.996,-0.0019702
17.99,199.03,14.721,99.995,-0.0026099
18.04,199.53,14.72,99.994,-0.0026092
18.09,200.03,14.72,99.992,-0.0023792
18.14,200.53,14.72,99.991,-0.0024748
18.19,201.031,14.72,99.99,-0.0022888
18.24,201.531,14.72,99.989,-0.0029283
18.29,202.031,14.72,99.987,-0.0025169
18.34,202.531,14.719,99.986,-0.0025653
18.39,203.031,14.719,99.985,-0.0027015
18.44,203.531,14.719,99.984,-0.0025667
18.49,204.031,14.719,99.983,-0.0021984
18.54,204.531,14.719,99.981,-0.0029309
18.59,205.031,14.718,99.98,-0.0021087
18.64,205.531,14.718,99.979,-0.0021550
18.69,206.031,14.718,99.978,-0.0022476
18.74,206.532,14.718,99.976,-0.0027518
18.79,207.032,14.718,99.975,-0.0028472
18.84,207.532,14.718,99.974,-0.0028894
18.89,208.032,14.717,99.972,-0.0024787
18.94,208.532,14.717,99.971,-0.0025698
18.99,209.032,14.717,99.97,-0.0030267
19.04,209.532,14.717,99.969,-0.0028414
19.09,210.032,14.717,99.967,-0.0026142
19.14,210.532,14.716,99.966,-0.0025695
19.19,211.032,14.716,99.965,-0.0027930
19.24,211.532,14.716,99.963,-0.0025172
19.29,212.033,14.716,99.962,-0.0026998
19.34,212.533,14.716,99.961,-0.0028821
19.39,213.033,14.715,99.96,-0.0027017
19.44,213.533,14.715,99.958,-0.0024270
19.49,214.033,14.715,99.957,-0.0023827
19.54,214.533,14.715,99.956,-0.0025202
19.59,215.033,14.715,99.954,-0.0029304
19.64,215.533,14.714,99.953,-0.0028402
19.69,216.033,14.714,99.951,-0.0030692
19.74,216.533,14.714,99.95,-0.0032524
19.79,217.033,14.714,99.949,-0.0027473
19.84,217.533,14.714,99.947,-0.0028854
19.89,218.034,14.713,99.946,-0.0032518
19.94,218.534,14.713,99.944,-0.0032067
19.99,219.034,14.713,99.943,-0.0026136
20.04,219.534,14.713,99.942,-0.0034847
20.09,220.034,14.713,99.94,-0.0026606
20.14,220.534,14.712,99.939,-0.0026571
20.19,221.034,14.712,99.937,-0.0030239
20.24,221.534,14.712,99.936,-0.0028881
20.29,222.034,14.712,99.935,-0.0028846
20.34,222.534,14.712,99.933,-0.0032060
20.39,223.034,14.711,99.932,-0.0027938
20.44,223.535,14.711,99.93,-0.0031125
20.49,224.035,14.711,99.929,-0.0027931
20.54,224.535,14.711,99.927,-0.0030223
20.59,225.035,14.71,99.926,-0.0032515
20.64,225.535,14.71,99.924,-0.0026576
20.69,226.035,14.71,99.923,-0.0032051
20.74,226.535,14.71,99.921,-0.0028873
20.79,227.035,14.71,99.92,-0.0029756
20.84,227.535,14.709,99.919,-0.0030712
20.89,228.035,14.709,99.917,-0.0029789
20.94,228.535,14.709,99.916,-0.0029789
20.99,229.036,14.709,99.914,-0.0027969
21.04,229.536,14.709,99.913,-0.0030712
21.09,230.036,14.708,99.911,-0.0031173
21.14,230.536,14.708,99.91,-0.0033480
21.19,231.036,14.708,99.908,-0.0030728
21.24,231.536,14.708,99.907,-0.0033004
21.29,232.036,14.707,99.905,-0.0029336
21.34,232.536,14.707,99.904,-0.0027955
21.39,233.036,14.707,99.902,-0.0032516
21.44,233.536,14.707,99.901,-0.0032042
21.49,234.036,14.707,99.899,-0.0030672
21.54,234.537,14.706,99.897,-0.0032524
21.59,235.037,14.706,99.896,-0.0031155
21.64,235.537,14.706,99.894,-0.0030695
21.69,236.037,14.706,99.893,-0.0037546
21.74,236.537,14.705,99.891,-0.0035263
21.79,237.037,14.705,99.89,-0.0033456
21.84,237.537,14.705,99.888,-0.0033911
21.89,238.037,14.705,99.886,-0.0032066
21.94,238.537,14.704,99.885,-0.0030683
21.99,239.037,14.704,99.883,-0.0031113
22.04,239.537,14.704,99.882,-0.0032051
22.09,240.038,14.704,99.88,-0.0028868
22.14,240.538,14.703,99.878,-0.0035289
22.19,241.038,14.703,99.877,-0.0032069
22.24,241.538,14.703,99.875,-0.0033440
22.3,242.038,14.703,99.873,-0.0028404
22.35,242.538,14.703,99.872,-0.0031150
22.4,243.038,14.702,99.87,-0.0034812
22.45,243.538,14.702,99.869,-0.0032048
22.5,244.038,14.702,99.867,-0.0031599
22.55,244.538,14.702,99.865,-0.0030714
22.6,245.038,14.701,99.864,-0.0029811
22.65,245.538,14.701,99.862,-0.0033920
22.7,246.039,14.701,99.861,-0.0034372
22.75,246.539,14.701,99.859,-0.0024766
22.8,247.039,14.7,99.857,-0.0031144
22.85,247.539,14.7,99.856,-0.0029789
22.9,248.039,14.7,99.854,-0.0032982
22.95,248.539,14.7,99.852,-0.0033003
23,249.039,14.699,99.851,-0.0037122
23.05,249.539,14.699,99.849,-0.0033904
23.1,250.039,14.699,99.847,-0.0034812
23.15,250.539,14.699,99.845,-0.0036670
23.2,251.039,14.698,99.844,-0.0036647
23.25,251.54,14.698,99.842,-0.0035734
23.3,252.04,14.698,99.84,-0.0040267
23.35,252.54,14.698,99.838,-0.0041663
23.4,253.04,14.697,99.837,-0.0038021
23.45,253.54,14.697,99.835,-0.0033456
23.5,254.04,14.697,99.833,-0.0037122
23.55,254.54,14.697,99.831,-0.0035282
23.6,255.04,14.696,99.83,-0.0033455
23.65,255.54,14.696,99.828,-0.0041693
23.7,256.04,14.696,99.826,-0.0034818
23.75,256.54,14.696,99.825,-0.0032086
23.8,257.041,14.695,99.823,-0.0037136
23.85,257.541,14.695,99.821,-0.0037122
23.9,258.041,14.695,99.819,-0.0035767
23.95,258.541,14.695,99.817,-0.0036206
24,259.041,14.694,99.816,-0.0035225
24.05,259.541,14.694,99.814,-0.0036152
24.1,260.041,14.694,99.812,-0.0035237
24.15,260.541,14.693,99.81,-0.0037525
24.2,261.041,14.693,99.808,-0.0041193
24.25,261.541,14.693,99.806,-0.0037108
24.3,262.041,14.693,99.805,-0.0037581
24.35,262.542,14.692,99.803,-0.0034372
24.4,263.042,14.692,99.801,-0.0040751
24.45,263.542,14.692,99.799,-0.0033926
24.5,264.042,14.692,99.797,-0.0038039
24.55,264.542,14.691,99.795,-0.0039851
24.6,265.042,14.691,99.793,-0.0037143
24.65,265.542,14.691,99.791,-0.0039420
24.7,266.042,14.69,99.789,-0.0036185
24.75,266.542,14.69,99.788,-0.0038004
24.8,267.042,14.69,99.786,-0.0038475
24.85,267.542,14.69,99.784,-0.0038955
24.9,268.043,14.689,99.782,-0.0038955
24.95,268.543,14.689,99.78,-0.0034843
25,269.043,14.689,99.778,-0.0037102
25.05,269.543,14.688,99.776,-0.0044889
25.1,270.043,14.688,99.774,-0.0036657
25.15,270.543,14.688,99.772,-0.0038976
25.2,271.043,14.688,99.77,-0.0038956
25.25,271.543,14.687,99.768,-0.0037088
25.3,272.043,14.687,99.766,-0.0039399
25.35,272.543,14.687,99.764,-0.0043056
25.4,273.043,14.686,99.762,-0.0036650
25.45,273.543,14.686,99.76,-0.0036172
25.5,274.044,14.686,99.758,-0.0037559
25.55,274.544,14.686,99.756,-0.0039872
25.6,275.044,14.685,99.754,-0.0037122
25.65,275.544,14.685,99.752,-0.0039385
25.7,276.044,14.685,99.75,-0.0040773
25.75,276.544,14.684,99.748,-0.0041247
25.8,277.044,14.684,99.746,-0.0042140
25.85,277.544,14.684,99.744,-0.0040751
25.9,278.044,14.683,99.742,-0.0042148
25.95,278.544,14.683,99.74,-0.0045264
26,279.044,14.683,99.738,-0.0041209
26.05,279.545,14.682,99.736,-0.0041225
26.1,280.045,14.682,99.734,-0.0041209
26.15,280.545,14.682,99.732,-0.0038954
26.2,281.045,14.682,99.729,-0.0041231
26.25,281.545,14.681,99.727,-0.0040751
26.3,282.045,14.681,99.725,-0.0040293
26.35,282.545,14.681,99.723,-0.0037531
26.4,283.045,14.68,99.721,-0.0044408
26.45,283.545,14.68,99.719,-0.0040330
26.5,284.045,14.68,99.717,-0.0043064
26.55,284.545,14.679,99.715,-0.0042645
26.6,285.046,14.679,99.713,-0.0043040
26.65,285.546,14.679,99.711,-0.0038497
26.7,286.046,14.679,99.709,-0.0044455
26.75,286.546,14.678,99.707,-0.0038919
26.8,287.046,14.678,99.705,-0.0047187
26.85,287.546,14.678,99.702,-0.0047143
26.9,288.046,14.677,99.7,-0.0046703
26.95,288.546,14.677,99.698,-0.0039865
27,289.046,14.677,99.696,-0.0039813
27.05,289.546,14.676,99.694,-0.0047576
27.1,290.046,14.676,99.692,-0.0045719
27.15,290.547,14.676,99.689,-0.0041667
27.2,291.047,14.675,99.687,-0.0040337
27.25,291.547,14.675,99.685,-0.0045330
27.3,292.047,14.675,99.683,-0.0043538
27.35,292.547,14.674,99.681,-0.0044929
27.4,293.047,14.674,99.678,-0.0040773
27.45,293.547,14.674,99.676,-0.0043025
27.5,294.047,14.673,99.674,-0.0049038
27.55,294.547,14.673,99.672,-0.0046330
27.6,295.047,14.673,99.67,-0.0040345
27.65,295.547,14.672,99.667,-0.0038497
27.7,296.048,14.672,99.665,-0.0042163
27.75,296.548,14.672,99.663,-0.0043980
27.8,297.048,14.671,99.661,-0.0043079
27.85,297.548,14.671,99.658,-0.0039872
27.9,298.048,14.671,99.656,-0.0045813
27.95,298.548,14.67,99.654,-0.0038948
28,299.048,14.67,99.652,-0.0040766
28.05,299.548,14.67,99.65,-0.0038884
28.1,300.048,14.669,99.647,-0.0043522
28.15,300.548,14.669,99.645,-0.0041690
28.2,301.048,14.669,99.643,-0.0047592
28.25,301.548,14.669,99.641,-0.0046187
28.3,302.049,14.668,99.638,-0.0049451
28.35,302.549,14.668,99.636,-0.0042101
28.4,303.049,14.667,99.634,-0.0045788
28.45,303.549,14.667,99.632,-0.0050366
28.5,304.049,14.667,99.629,-0.0043554
28.55,304.549,14.667,99.627,-0.0042629
28.6,305.049,14.666,99.625,-0.0048535
28.65,305.549,14.666,99.623,-0.0045812
28.7,306.049,14.666,99.62,-0.0044414
28.75,306.549,14.665,99.618,-0.0044872
28.8,307.049,14.665,99.616,-0.0048561
28.85,307.55,14.665,99.614,-0.0048050
28.9,308.05,14.664,99.611,-0.0044896
28.95,308.55,14.664,99.609,-0.0053084
29,309.05,14.663,99.607,-0.0045762
29.05,309.55,14.663,99.604,-0.0048482
29.1,310.05,14.663,99.602,-0.0042109
29.15,310.55,14.662,99.6,-0.0047135
29.2,311.05,14.662,99.597,-0.0044414
29.25,311.55,14.662,99.595,-0.0046288
29.3,312.05,14.661,99.593,-0.0045788
29.35,312.55,14.661,99.59,-0.0049020
29.4,313.051,14.661,99.588,-0.0049973
29.45,313.551,14.66,99.586,-0.0044913
29.5,314.051,14.66,99.583,-0.0043981
29.55,314.551,14.66,99.581,-0.0045371
29.6,315.051,14.659,99.579,-0.0048060
29.65,315.551,14.659,99.576,-0.0049011
29.7,316.051,14.659,99.574,-0.0047644
29.75,316.551,14.658,99.572,-0.0044414
29.8,317.051,14.658,99.569,-0.0050852
29.85,317.551,14.658,99.567,-0.0049496
29.9,318.051,14.657,99.565,-0.0048993
29.95,318.552,14.657,99.562,-0.0045829
30,319.052,14.657,99.56,-0.0050842
30.05,319.552,14.656,99.557,-0.0051768
30.1,320.052,14.656,99.555,-0.0047213
30.15,320.552,14.656,99.552,-0.0048579
30.2,321.052,14.655,99.55,-0.0049424
30.25,321.552,14.655,99.548,-0.0047187
30.3,322.052,14.654,99.545,-0.0051301
30.35,322.552,14.654,99.543,-0.0049936
30.4,323.052,14.654,99.54,-0.0050769
30.45,323.552,14.653,99.538,-0.0052627
30.5,324.053,14.653,99.536,-0.0049019
30.55,324.553,14.653,99.533,-0.0053065
30.6,325.053,14.652,99.531,-0.0054895
30.65,325.553,14.652,99.528,-0.0048553
30.7,326.053,14.652,99.526,-0.0051692
30.75,326.553,14.651,99.523,-0.0047144
30.8,327.053,14.651,99.521,-0.0051693
30.85,327.553,14.65,99.518,-0.0047593
30.9,328.053,14.65,99.516,-0.0048966
30.95,328.553,14.65,99.513,-0.0052608
31,329.053,14.649,99.511,-0.0049872
31.05,329.553,14.649,99.508,-0.0048535
31.1,330.054,14.649,99.506,-0.0050394
31.15,330.554,14.648,99.503,-0.0051254
31.2,331.054,14.648,99.501,-0.0050805
31.25,331.554,14.648,99.498,-0.0052656
31.3,332.054,14.647,99.496,-0.0048077
31.35,332.554,14.647,99.493,-0.0049451
31.4,333.054,14.646,99.491,-0.0051282
31.45,333.554,14.646,99.488,-0.0052637
31.5,334.054,14.646,99.485,-0.0050777
31.55,334.554,14.645,99.483,-0.0054895
31.6,335.054,14.645,99.48,-0.0049862
31.65,335.555,14.644,99.478,-0.0052656
31.7,336.055,14.644,99.475,-0.0046229
31.75,336.555,14.644,99.472,-0.0053473
31.8,337.055,14.643,99.47,-0.0051712
31.85,337.555,14.643,99.467,-0.0053571
31.9,338.055,14.643,99.465,-0.0046703
31.95,338.555,14.642,99.462,-0.0048059
32,339.055,14.642,99.459,-0.0054945
32.05,339.555,14.641,99.457,-0.0045354
32.1,340.055,14.641,99.454,-0.0056319
32.15,340.555,14.641,99.451,-0.0055362
32.2,341.056,14.64,99.449,-0.0050329
32.25,341.556,14.64,99.446,-0.0050302
32.3,342.056,14.639,99.443,-0.0053591
32.35,342.556,14.639,99.44,-0.0052197
32.4,343.056,14.639,99.438,-0.0056745
32.45,343.556,14.638,99.435,-0.0060015
32.5,344.056,14.638,99.432,-0.0059546
32.55,344.556,14.637,99.429,-0.0058630
32.6,345.056,14.637,99.426,-0.0060037
32.65,345.556,14.637,99.423,-0.0059099
32.7,346.056,14.636,99.421,-0.0060014
32.75,346.557,14.636,99.418,-0.0055830
32.8,347.057,14.635,99.415,-0.0059524
32.85,347.557,14.635,99.412,-0.0054975
32.9,348.057,14.634,99.409,-0.0055861
32.95,348.557,14.634,99.406,-0.0059491
33,349.057,14.634,99.403,-0.0056745
33.05,349.557,14.633,99.4,-0.0054010
33.1,350.057,14.633,99.397,-0.0054437
33.15,350.557,14.632,99.394,-0.0056797
33.2,351.057,14.632,99.391,-0.0063609
33.25,351.557,14.631,99.388,-0.0060015
33.3,352.058,14.631,99.385,-0.0063221
33.35,352.558,14.63,99.382,-0.0059066
33.4,353.058,14.63,99.379,-0.0064560
33.45,353.558,14.63,99.376,-0.0065512
33.5,354.058,14.629,99.373,-0.0061870
33.55,354.558,14.629,99.369,-0.0069190
33.6,355.058,14.628,99.366,-0.0062787
33.65,355.558,14.628,99.363,-0.0062282
33.7,356.058,14.627,99.36,-0.0063645
33.75,356.558,14.627,99.357,-0.0073678
33.8,357.058,14.626,99.353,-0.0065055
33.85,357.558,14.626,99.35,-0.0065018
33.9,358.059,14.625,99.347,-0.0066355
33.95,358.559,14.625,99.343,-0.0071886
34,359.059,14.624,99.34,-0.0064126
34.05,359.559,14.624,99.336,-0.0065476
34.1,360.059,14.623,99.333,-0.0068223
34.15,360.559,14.623,99.33,-0.0068719
34.2,361.059,14.622,99.326,-0.0069635
34.25,361.559,14.622,99.323,-0.0066924
34.3,362.059,14.621,99.319,-0.0070958
34.35,362.559,14.621,99.316,-0.0071860
34.4,363.059,14.62,99.312,-0.0070474
34.45,363.56,14.62,99.309,-0.0074108
34.5,364.06,14.619,99.305,-0.0075981
34.55,364.56,14.619,99.301,-0.0075133
34.6,365.06,14.618,99.297,-0.0077782
34.65,365.56,14.617,99.294,-0.0080129
34.71,366.06,14.617,99.29,-0.0076923
34.76,366.56,14.616,99.286,-0.0076824
34.81,367.06,14.616,99.282,-0.0077796
34.86,367.56,14.615,99.278,-0.0080542
34.91,368.06,14.615,99.274,-0.0080955
34.96,368.56,14.614,99.27,-0.0081915
35.01,369.061,14.613,99.266,-0.0081457
35.06,369.561,14.613,99.262,-0.0081458
35.11,370.061,14.612,99.258,-0.0086081
35.16,370.561,14.611,99.253,-0.0083791
35.21,371.061,14.611,99.249,-0.0087864
35.26,371.561,14.61,99.244,-0.0091491
35.31,372.061,14.609,99.24,-0.0087502
35.36,372.561,14.609,99.235,-0.0091524
35.41,373.061,14.608,99.231,-0.0091117
35.46,373.561,14.607,99.226,-0.0096154
35.51,374.061,14.607,99.221,-0.0095696
35.56,374.562,14.606,99.216,-0.0097070
35.61,375.062,14.605,99.211,-0.0105254
35.66,375.562,14.605,99.206,-0.0101246
35.71,376.062,14.604,99.201,-0.0103078
35.76,376.562,14.603,99.196,-0.0107241
35.81,377.062,14.602,99.19,-0.0114883
35.86,377.562,14.601,99.185,-0.0112699
35.91,378.062,14.601,99.179,-0.0115842
35.96,378.562,14.6,99.173,-0.0115906
36.01,379.062,14.599,99.168,-0.0116694
36.06,379.562,14.598,99.162,-0.0118873
36.11,380.063,14.597,99.156,-0.0123926
36.16,380.563,14.596,99.149,-0.0122666
36.21,381.063,14.595,99.143,-0.0129073
36.26,381.563,14.594,99.136,-0.0133072
36.31,382.063,14.593,99.129,-0.0136372
36.36,382.563,14.592,99.123,-0.0144099
36.41,383.063,14.591,99.115,-0.0146386
36.46,383.563,14.59,99.108,-0.0149240
36.51,384.063,14.589,99.101,-0.0148488
36.56,384.563,14.588,99.093,-0.0160656
36.61,385.063,14.587,99.085,-0.0160257
36.66,385.563,14.586,99.077,-0.0163919
36.71,386.064,14.584,99.069,-0.0165384
36.76,386.564,14.583,99.061,-0.0171703
36.81,387.064,14.582,99.052,-0.0179029
36.86,387.564,14.581,99.043,-0.0179127
36.91,388.064,14.579,99.034,-0.0178571
36.96,388.564,14.578,99.025,-0.0184812
37.01,389.064,14.577,99.016,-0.0187729
37.06,389.564,14.575,99.007,-0.0191392
37.11,390.064,14.574,98.997,-0.0199524
37.16,390.564,14.572,98.987,-0.0198812
37.21,391.064,14.571,98.977,-0.0200897
37.26,391.565,14.569,98.967,-0.0203297
37.31,392.065,14.568,98.957,-0.0207342
37.36,392.565,14.566,98.946,-0.0214744
37.41,393.065,14.565,98.936,-0.0212912
37.46,393.565,14.563,98.925,-0.0217829
37.51,394.065,14.562,98.914,-0.0222192
37.56,394.565,14.56,98.903,-0.0226314
37.61,395.065,14.558,98.892,-0.0225275
37.66,395.565,14.557,98.88,-0.0232271
37.71,396.065,14.555,98.868,-0.0240517
37.76,396.565,14.553,98.856,-0.0237048
37.81,397.066,14.551,98.844,-0.0243958
37.86,397.566,14.549,98.832,-0.0245332
37.91,398.066,14.548,98.819,-0.0254028
37.96,398.566,14.546,98.806,-0.0262893
38.01,399.066,14.544,98.793,-0.0265782
38.06,399.566,14.542,98.779,-0.0268527
38.11,400.066,14.54,98.766,-0.0283165
38.16,400.566,14.538,98.752,-0.0281993
38.21,401.066,14.536,98.737,-0.0282604
38.26,401.566,14.533,98.723,-0.0295463
38.31,402.066,14.531,98.708,-0.0298261
38.36,402.567,14.529,98.693,-0.0306608
38.41,403.067,14.527,98.677,-0.0315356
38.46,403.567,14.524,98.661,-0.0319130
38.51,404.067,14.522,98.645,-0.0331198
38.56,404.567,14.52,98.629,-0.0336019
38.61,405.067,14.517,98.611,-0.0345443
38.66,405.567,14.514,98.594,-0.0353156
38.71,406.067,14.512,98.576,-0.0362180
38.76,406.567,14.509,98.558,-0.0371455
38.81,407.067,14.506,98.539,-0.0375000
38.86,407.567,14.504,98.52,-0.0394929
38.91,408.068,14.501,98.5,-0.0399267
38.96,408.568,14.498,98.48,-0.0413004
39.01,409.068,14.495,98.459,-0.0419110
39.06,409.568,14.491,98.438,-0.0434066
39.11,410.068,14.488,98.416,-0.0439776
39.16,410.568,14.485,98.394,-0.0454712
39.21,411.068,14.482,98.371,-0.0465861
39.26,411.568,14.478,98.347,-0.0479677
39.31,412.068,14.475,98.323,-0.0493138
39.36,412.568,14.471,98.298,-0.0507048
39.41,413.068,14.467,98.273,-0.0519040
39.46,413.568,14.463,98.246,-0.0529304
39.51,414.069,14.459,98.219,-0.0553523
39.56,414.569,14.455,98.191,-0.0564103
39.61,415.069,14.451,98.163,-0.0581044
39.66,415.569,14.447,98.133,-0.0600605
39.71,416.069,14.442,98.103,-0.0620421
39.76,416.569,14.437,98.071,-0.0632894
39.81,417.069,14.433,98.039,-0.0659315
39.86,417.569,14.428,98.006,-0.0676987
39.91,418.069,14.423,97.971,-0.0697600
39.96,418.569,14.418,97.936,-0.0719780
40.01,419.069,14.412,97.899,-0.0773384
40.06,419.57,14.406,97.858,-0.0854987
40.11,420.07,14.4,97.814,-0.0985359
40.15,420.57,14.393,97.769,-0.0973008
40.2,421.07,14.386,97.719,-0.1046780
40.25,421.57,14.378,97.667,-0.1044370
40.31,422.07,14.37,97.612,-0.1157820
40.36,422.57,14.362,97.556,-0.1198060
40.41,423.07,14.353,97.498,-0.1157090
40.46,423.57,14.344,97.44,-0.1212910
40.51,424.07,14.336,97.379,-0.1168320
40.56,424.57,14.327,97.318,-0.1321560
40.61,425.071,14.317,97.253,-0.1342600
40.66,425.571,14.307,97.185,-0.1471180
40.71,426.071,14.296,97.112,-0.1480410
40.76,426.571,14.285,97.038,-0.1537510
40.81,427.071,14.274,96.961,-0.1557300
40.86,427.571,14.262,96.881,-0.1619960
40.91,428.071,14.25,96.797,-0.1713980
40.96,428.571,14.237,96.713,-0.1738340
41.01,429.071,14.225,96.627,-0.1813900
41.06,429.571,14.212,96.54,-0.1776560
41.11,430.071,14.198,96.446,-0.1899270
41.16,430.572,14.184,96.347,-0.2074400
41.21,431.072,14.168,96.241,-0.2223960
41.26,431.572,14.151,96.127,-0.2383490
41.31,432.072,14.134,96.007,-0.2450030
41.36,432.572,14.115,95.881,-0.2593940
41.41,433.072,14.096,95.752,-0.2667580
41.46,433.572,14.077,95.62,-0.2853740
41.51,434.072,14.056,95.479,-0.2967240
41.56,434.572,14.034,95.33,-0.3106700
41.61,435.072,14.01,95.169,-0.3370080
41.66,435.572,13.985,95,-0.3576330
41.71,436.073,13.96,94.828,-0.3310050
41.76,436.573,13.935,94.658,-0.3454830
41.81,437.073,13.909,94.478,-0.3588600
41.86,437.573,13.881,94.292,-0.4036950
41.91,438.073,13.852,94.096,-0.4055420
41.96,438.573,13.822,93.889,-0.4467490
42.01,439.073,13.79,93.673,-0.4127000
42.06,439.573,13.761,93.475,-0.3849260
42.11,440.073,13.732,93.278,-0.4114570
42.16,440.573,13.699,93.058,-0.4771400
42.21,441.073,13.664,92.82,-0.4624540
42.26,441.573,13.632,92.602,-0.3869810
42.31,442.074,13.604,92.408,-0.4046500
42.36,442.574,13.572,92.19,-0.4713790
42.41,443.074,13.535,91.938,-0.5039760
42.46,443.574,13.495,91.667,-0.5340780
42.51,444.074,13.454,91.389,-0.6181940
42.56,444.574,13.408,91.081,-0.6777000
42.61,445.074,13.36,90.749,-0.6930910
42.66,445.574,13.31,90.413,-0.6400550
42.71,446.074,13.263,90.094,-0.6906820
42.76,446.574,13.211,89.738,-0.7583890
42.81,447.074,13.154,89.355,-0.7908720
42.86,447.575,13.096,88.961,-0.7911200
42.91,448.075,13.039,88.573,-0.7978940
42.96,448.575,12.979,88.162,-0.8524230
43.01,449.075,12.919,87.754,-0.8420790
43.06,449.575,12.854,87.316,-0.8976280
43.11,450.075,12.787,86.859,-0.9341280
43.16,450.575,12.721,86.411,-0.8840520
43.21,451.075,12.649,85.924,-1.01388
43.26,451.575,12.574,85.415,-1.03199
43.31,452.075,12.496,84.884,-1.02521
43.36,452.575,12.419,84.357,-1.08084
43.41,453.076,12.339,83.819,-1.05909
43.46,453.576,12.251,83.217,-1.23653
43.51,454.076,12.16,82.598,-1.20976
43.56,454.576,12.07,81.989,-1.21666
43.61,455.076,11.977,81.358,-1.32409
43.66,455.576,11.875,80.663,-1.44975
43.71,456.076,11.771,79.961,-1.3538
43.76,456.576,11.668,79.262,-1.43882
43.81,457.076,11.563,78.542,-1.52321
43.86,457.576,11.448,77.763,-1.64347
43.91,458.076,11.326,76.937,-1.71364
43.96,458.577,11.209,76.138,-1.60036
44.01,459.077,11.083,75.285,-1.76268
44.06,459.577,10.95,74.382,-1.78567
44.11,460.077,10.818,73.488,-1.84231
44.16,460.577,10.681,72.552,-1.91535
44.21,461.077,10.533,71.551,-1.98376
44.26,461.577,10.383,70.532,-2.04968
44.31,462.077,10.227,69.472,-2.15558
44.36,462.577,10.072,68.414,-2.14858
44.41,463.077,9.908,67.307,-2.25906
44.46,463.577,9.74,66.162,-2.32846
44.51,464.078,9.564,64.965,-2.4919
44.56,464.578,9.378,63.704,-2.62026
44.61,465.078,9.184,62.385,-2.59094
44.66,465.578,8.992,61.081,-2.63995
44.71,466.078,8.795,59.742,-2.66288
44.76,466.578,8.589,58.346,-2.89862
44.81,467.078,8.373,56.876,-2.97974
44.86,467.578,8.149,55.356,-3.05755
44.91,468.078,7.922,53.814,-3.0292
44.96,468.578,7.686,52.21,-3.18001
45.01,469.078,7.457,50.651,-3.25808
45.06,469.578,7.214,49.002,-3.26214
45.11,470.079,6.967,47.325,-3.33282
45.16,470.579,6.711,45.584,-3.5909
45.21,471.079,6.448,43.799,-3.62109
45.26,471.579,6.181,41.986,-3.63312
45.31,472.079,5.911,40.149,-3.70087
45.36,472.579,5.635,38.279,-3.77419
45.41,473.079,5.358,36.398,-3.72743
45.46,473.579,5.085,34.541,-3.64204
45.51,474.079,4.811,32.681,-3.70292
45.56,474.579,4.539,30.832,-3.72795
45.61,475.079,4.249,28.863,-3.79464
45.66,475.58,3.967,26.949,-3.69243
45.71,476.08,3.695,25.098,-3.67309
45.76,476.58,3.422,23.248,-3.57156
45.81,477.08,3.168,21.521,-3.37473
45.86,477.58,2.924,19.86,-3.42645
45.91,478.08,2.658,18.058,-4.25352
45.96,478.58,2.431,16.511,-2.80705
46.01,479.08,2.227,15.125,-2.80503
46.06,479.58,2.014,13.683,-2.76115
46.1,480.08,1.818,12.346,-2.60583
46.15,480.58,1.627,11.053,-2.68737
46.2,481.081,1.438,9.765,-2.22468
46.25,481.581,1.275,8.658,-2.17387
46.3,482.081,1.124,7.637,-2.01542
46.35,482.581,0.9810000,6.664,-1.88377
46.4,483.081,0.8510000,5.783,-1.64108
46.45,483.581,0.7360000,5.001,-1.46101
46.5,484.081,0.6400000,4.345,-1.27767
46.55,484.581,0.5550000,3.768,-1.03137
46.6,485.081,0.4840000,3.289,-0.8577640
46.65,485.581,0.4290000,2.914,-0.6727900
46.7,486.081,0.3840000,2.608,-0.5254940
46.75,486.582,0.3490000,2.373,-0.4098740
46.79,487.082,0.3240000,2.204,-0.2910630
46.84,487.582,0.3060000,2.077,-0.2124010
46.9,488.082,0.2930000,1.988,-0.1323020
46.95,488.582,0.2850000,1.933,-0.0893727
47,489.082,0.2800000,1.9,-0.0490373
47.05,489.582,0.2770000,1.88,-0.0386935
47.1,490.082,0.2740000,1.86,-0.0369397
47.15,490.582,0.2710000,1.843,-0.0333604
47.2,491.082,0.2690000,1.828,-0.0275660
47.25,491.582,0.2670000,1.815,-0.0225247
47.3,492.083,0.2660000,1.805,-0.0183167
47.36,492.583,0.2640000,1.797,-0.0146313
47.41,493.083,0.2640000,1.79,-0.0115296
47.46,493.583,0.2630000,1.785,-0.0091103
47.51,494.083,0.2620000,1.781,-0.0073291
47.56,494.583,0.2620000,1.778,-0.0055162
47.61,495.083,0.2610000,1.775,-0.0041710
47.66,495.583,0.2610000,1.773,-0.0035059
47.71,496.083,0.2610000,1.772,-0.0025105
47.76,496.583,0.2610000,1.77,-0.0023493
47.81,497.083,0.2600000,1.769,-0.0020025
47.86,497.583,0.2600000,1.768,-0.0015641
47.9,498.084,0.2600000,1.768,-0.0013243
47.95,498.584,0.2600000,1.767,-0.0008677
48,499.084,0.2600000,1.767,-0.0008614
48.05,499.584,0.2600000,1.767,-0.0006028
48.1,500.084,0.2600000,1.766,-0.0004464
48.15,500.584,0.2600000,1.766,-0.0001044
48.2,501.084,0.2600000,1.766,-0.0004719
48.25,501.584,0.2600000,1.766,-0.0002911
48.3,502.084,0.2600000,1.765,-0.0003993
48.35,502.584,0.2600000,1.765,-0.0000338
48.4,503.084,0.2600000,1.765,-0.0001587
48.45,503.585,0.2600000,1.765,-0.0002069
48.5,504.085,0.2600000,1.765,-0.0004265
48.55,504.585,0.2600000,1.765,-0.0000926
48.6,505.085,0.2600000,1.765,0.0000050
48.65,505.585,0.2600000,1.765,-0.0001269
48.7,506.085,0.2600000,1.765,-0.0001097
48.75,506.585,0.2600000,1.765,-0.0002695
48.8,507.085,0.2600000,1.765,-0.0002071
48.85,507.585,0.2600000,1.765,-0.0001190
48.9,508.085,0.2600000,1.765,-0.0002236
48.95,508.585,0.2600000,1.765,0.0000480
49,509.086,0.2600000,1.765,-0.0003674
49.05,509.586,0.2600000,1.764,-0.0001288
49.1,510.086,0.2600000,1.764,-0.0003091
49.15,510.586,0.2600000,1.764,-0.0005313
49.2,511.086,0.2600000,1.764,0.0000987
49.25,511.586,0.2600000,1.764,-0.0001158
49.3,512.086,0.2600000,1.764,-0.0003026
49.35,512.586,0.2600000,1.764,-0.0001365
49.4,513.086,0.2600000,1.764,0.0000966
49.45,513.586,0.2600000,1.764,-0.0001859
49.5,514.086,0.2600000,1.764,-0.0002103
49.55,514.587,0.2600000,1.764,0.0000494
49.6,515.087,0.2600000,1.764,0.0003949
49.65,515.587,0.2600000,1.764,0.0000064
49.7,516.087,0.2600000,1.764,-0.0000544
49.75,516.587,0.2600000,1.764,0.0001109
49.8,517.087,0.2600000,1.764,-0.0001109
49.85,517.587,0.2600000,1.764,0.0000972
49.9,518.087,0.2600000,1.764,-0.0000537
49.95,518.587,0.2600000,1.764,-0.0000936
50,519.087,0.2600000,1.764,0.0002107
50.05,519.587,0.2600000,1.764,-0.0001235
50.1,520.088,0.2600000,1.764,-0.0002111
50.15,520.588,0.2600000,1.764,-0.0000007
50.2,521.088,0.2600000,1.764,-0.0005529
50.25,521.588,0.2600000,1.764,-0.0003152
50.3,522.088,0.2600000,1.764,-0.0002222
50.35,522.588,0.2600000,1.764,-0.0001243
50.4,523.088,0.2600000,1.763,-0.0001201
50.45,523.588,0.2600000,1.763,0.0000771
50.5,524.088,0.2600000,1.763,-0.0003144
50.55,524.588,0.2600000,1.763,0.0000572
50.6,525.088,0.2600000,1.763,0.0001394
50.65,525.588,0.2600000,1.763,0.0001259
50.7,526.089,0.2600000,1.763,-0.0001810
50.75,526.589,0.2600000,1.763,-0.0001352
50.8,527.089,0.2600000,1.763,0.0000172
50.85,527.589,0.2600000,1.763,-0.0003405
50.9,528.089,0.2600000,1.763,-0.0001102
50.95,528.589,0.2600000,1.763,0.0000029
51,529.089,0.2600000,1.763,0.0000943
51.05,529.589,0.2590000,1.763,0.0000200
51.1,530.089,0.2590000,1.763,-0.0005547
51.15,530.589,0.2590000,1.762,-0.0004310
51.2,531.089,0.2590000,1.762,0.0000200
51.25,531.59,0.2590000,1.762,-0.0002622
51.3,532.09,0.2590000,1.762,-0.0000815
51.35,532.59,0.2590000,1.762,-0.0001165
51.4,533.09,0.2590000,1.762,-0.0004133
51.45,533.59,0.2590000,1.762,-0.0001658
51.5,534.09,0.2590000,1.762,0.0000673
51.55,534.59,0.2590000,1.762,-0.0001501
51.6,535.09,0.2590000,1.762,-0.0001244
51.65,535.59,0.2590000,1.762,0.0003981
51.7,536.09,0.2590000,1.762,0.0000093
51.75,536.59,0.2590000,1.762,-0.0001443
51.8,537.091,0.2590000,1.762,-0.0001895
51.85,537.591,0.2590000,1.762,-0.0001358
51.9,538.091,0.2590000,1.762,0.0000279
51.95,538.591,0.2590000,1.762,-0.0000486
52,539.091,0.2590000,1.762,0.0000737
52.05,539.591,0.2590000,1.762,-0.0000157
52.1,540.091,0.2590000,1.762,-0.0000522
52.15,540.591,0.2590000,1.761,0.0001058
52.2,541.091,0.2590000,1.761,-0.0001979
52.25,541.591,0.2590000,1.761,-0.0001495
52.3,542.091,0.2590000,1.761,0.0001115
52.35,542.592,0.2590000,1.761,-0.0001515
52.4,543.092,0.2590000,1.761,-0.0000407
52.45,543.592,0.2590000,1.761,-0.0001307
52.5,544.092,0.2590000,1.761,-0.0000493
52.55,544.592,0.2590000,1.761,0.0001829
52.6,545.092,0.2590000,1.761,-0.0002595
52.65,545.592,0.2590000,1.761,0.0000336
52.7,546.092,0.2590000,1.761,-0.0000050
52.75,546.592,0.2590000,1.761,-0.0001252
52.8,547.092,0.2590000,1.761,-0.0001345
52.85,547.592,0.2590000,1.761,0.0000343
52.9,548.093,0.2590000,1.761,-0.0000622
52.95,548.593,0.2590000,1.761,0.0000644
53,549.093,0.2590000,1.761,-0.0001344
53.05,549.593,0.2590000,1.761,-0.0001337
53.1,550.093,0.2590000,1.761,-0.0001551
53.15,550.593,0.2590000,1.761,0.0001336
53.2,551.093,0.2590000,1.761,0.0001115
53.25,551.593,0.2590000,1.761,-0.0001571
53.3,552.093,0.2590000,1.761,-0.0001958
53.35,552.593,0.2590000,1.761,0.0000279
53.4,553.093,0.2590000,1.761,0.0001044
53.45,553.593,0.2590000,1.761,-0.0001566
53.5,554.094,0.2590000,1.761,-0.0000579
53.55,554.594,0.2590000,1.761,-0.0000021
53.6,555.094,0.2590000,1.761,-0.0001915
53.65,555.594,0.2590000,1.761,0.0000572
53.7,556.094,0.2590000,1.76,-0.0003453
53.75,556.594,0.2590000,1.76,-0.0000572
53.8,557.094,0.2590000,1.76,-0.0003795
53.85,557.594,0.2590000,1.76,0.0000994
53.9,558.094,0.2590000,1.76,0.0002280
53.95,558.594,0.2590000,1.76,-0.0001458
54,559.094,0.2590000,1.76,-0.0001515
54.05,559.595,0.2590000,1.76,-0.0003384
54.1,560.095,0.2590000,1.76,0.0001423
54.15,560.595,0.2590000,1.76,-0.0001329
54.2,561.095,0.2590000,1.76,0.0000843
54.25,561.595,0.2590000,1.76,-0.0004044
54.3,562.095,0.2590000,1.76,-0.0003445
54.35,562.595,0.2590000,1.76,0.0000422
54.4,563.095,0.2590000,1.76,-0.0002130
54.45,563.595,0.2590000,1.76,-0.0004683
54.5,564.095,0.2590000,1.76,-0.0002747
54.55,564.595,0.2590000,1.759,-0.0002347
54.6,565.096,0.2590000,1.759,0.0000743
54.65,565.596,0.2590000,1.759,-0.0001258
54.7,566.096,0.2590000,1.759,-0.0001329
54.75,566.596,0.2590000,1.759,-0.0001736
54.8,567.096,0.2590000,1.759,-0.0000078
54.85,567.596,0.2590000,1.759,-0.0002173
54.9,568.096,0.2590000,1.759,-0.0003228
54.95,568.596,0.2590000,1.759,-0.0003014
55,569.096,0.2590000,1.759,-0.0003756
55.05,569.596,0.2590000,1.759,0.0000872
55.1,570.096,0.2590000,1.758,0.0000401
55.15,570.597,0.2590000,1.758,-0.0001880
55.2,571.097,0.2590000,1.758,-0.0002373
55.25,571.597,0.2590000,1.758,-0.0004314
55.3,572.097,0.2590000,1.758,-0.0005137
55.35,572.597,0.2590000,1.758,-0.0001036
55.4,573.097,0.2590000,1.758,-0.0001501
55.45,573.597,0.2590000,1.757,-0.0006025
55.5,574.097,0.2590000,1.757,-0.0006218
55.55,574.597,0.2590000,1.757,-0.0007084
55.6,575.097,0.2590000,1.757,-0.0004219
55.65,575.597,0.2590000,1.756,-0.0004874
55.7,576.098,0.2590000,1.756,-0.0004743
55.75,576.598,0.2590000,1.756,-0.0006991
55.8,577.098,0.2580000,1.756,-0.0004203
55.85,577.598,0.2580000,1.756,-0.0004011
55.9,578.098,0.2580000,1.755,-0.0006220
55.95,578.598,0.2580000,1.755,-0.0008522
56,579.098,0.2580000,1.755,-0.0006648
56.05,579.598,0.2580000,1.754,-0.0006125
56.1,580.098,0.2580000,1.754,-0.0002919
56.15,580.598,0.2580000,1.754,-0.0002612
56.2,581.098,0.2580000,1.754,-0.0003720
56.25,581.598,0.2580000,1.753,-0.0003587
56.3,582.099,0.2580000,1.753,-0.0004719
56.35,582.599,0.2580000,1.753,-0.0006603
56.4,583.099,0.2580000,1.753,-0.0004908
56.45,583.599,0.2580000,1.752,-0.0007483
56.5,584.099,0.2580000,1.752,-0.0007126
56.55,584.599,0.2580000,1.752,-0.0008406
56.6,585.099,0.2580000,1.751,-0.0005231
56.65,585.599,0.2580000,1.751,-0.0007401
56.7,586.099,0.2580000,1.75,-0.0005015
56.75,586.599,0.2580000,1.75,-0.0008084
56.8,587.099,0.2580000,1.75,-0.0009298
56.85,587.6,0.2580000,1.749,-0.0011846
56.9,588.1,0.2570000,1.749,-0.0008789
56.95,588.6,0.2570000,1.748,-0.0006743
57,589.1,0.2570000,1.748,-0.0004488
57.05,589.6,0.2570000,1.748,-0.0006146
57.09,590,0.2570000,1.747,-0.0007171