File: R/rHDPE_App/app/www/Output/TGA/Condensed_Data/Resin17_0__1.csv
0.8700000,30,12.667,100.025,0.0087407
0.9300000,30.5001,12.668,100.027,0.0016996
0.9900000,31.0002,12.668,100.029,0.0039258
1.05,31.5003,12.668,100.031,0.0049892
1.11,32.0004,12.668,100.032,0.0049696
1.17,32.5004,12.669,100.034,0.0019524
1.23,33.0005,12.669,100.035,0.0006262
1.28,33.5006,12.669,100.036,0.0039306
1.34,34.0007,12.669,100.037,0.0003590
1.39,34.5008,12.669,100.038,0.0029013
1.45,35.0009,12.669,100.039,0.0013155
1.5,35.501,12.669,100.04,0.0037219
1.56,36.0011,12.669,100.041,0.0005007
1.61,36.5012,12.67,100.042,0.0027401
1.67,37.0013,12.67,100.043,0.0008428
1.72,37.5013,12.67,100.044,0.0023719
1.78,38.0014,12.67,100.045,0.0029551
1.83,38.5015,12.67,100.046,0.0010795
1.88,39.0016,12.67,100.047,0.0026911
1.94,39.5017,12.67,100.047,0.0014645
1.99,40.0018,12.67,100.048,0.0006819
2.04,40.5019,12.67,100.049,0.0021881
2.09,41.002,12.671,100.05,0.0015533
2.15,41.5021,12.671,100.051,0.0015023
2.2,42.0021,12.671,100.052,0.0020323
2.25,42.5022,12.671,100.052,0.0020790
2.31,43.0023,12.671,100.053,0.0011100
2.36,43.5024,12.671,100.054,0.0017355
2.41,44.0025,12.671,100.055,0.0021648
2.46,44.5026,12.671,100.056,0.0013454
2.52,45.0027,12.671,100.056,0.0009115
2.57,45.5028,12.671,100.057,0.0020110
2.62,46.0029,12.672,100.058,0.0016250
2.67,46.5029,12.672,100.059,0.0017657
2.73,47.003,12.672,100.059,0.0009525
2.78,47.5031,12.672,100.06,0.0017120
2.83,48.0032,12.672,100.061,0.0015667
2.88,48.5033,12.672,100.062,0.0015169
2.93,49.0034,12.672,100.062,0.0016563
2.99,49.5035,12.672,100.063,0.0014180
3.04,50.0036,12.672,100.064,0.0013218
3.09,50.5037,12.672,100.065,0.0020272
3.14,51.0038,12.673,100.065,0.0013656
3.19,51.5038,12.673,100.066,0.0014116
3.24,52.0039,12.673,100.067,0.0015510
3.29,52.504,12.673,100.068,0.0016428
3.34,53.0041,12.673,100.068,0.0015004
3.4,53.5042,12.673,100.069,0.0016869
3.45,54.0043,12.673,100.07,0.0016850
3.5,54.5044,12.673,100.071,0.0012158
3.55,55.0045,12.673,100.071,0.0011214
3.6,55.5046,12.673,100.072,0.0015403
3.65,56.0046,12.673,100.073,0.0014460
3.7,56.5047,12.674,100.074,0.0013983
3.75,57.0048,12.674,100.074,0.0014899
3.8,57.5049,12.674,100.075,0.0011627
3.86,58.005,12.674,100.075,0.0012550
3.91,58.5051,12.674,100.076,0.0013936
3.96,59.0052,12.674,100.077,0.0009743
4.01,59.5053,12.674,100.078,0.0009739
4.06,60.0054,12.674,100.078,0.0012978
4.11,60.5054,12.674,100.079,0.0017605
4.16,61.0055,12.674,100.08,0.0009725
4.21,61.5056,12.674,100.08,0.0008794
4.26,62.0057,12.674,100.081,0.0014801
4.31,62.5058,12.675,100.081,0.0010166
4.36,63.0059,12.675,100.082,0.0013848
4.41,63.506,12.675,100.083,0.0013386
4.46,64.0061,12.675,100.083,0.0011994
4.51,64.5062,12.675,100.084,0.0013837
4.56,65.0063,12.675,100.084,0.0010612
4.61,65.5063,12.675,100.085,0.0011992
4.66,66.0064,12.675,100.085,0.0011065
4.71,66.5065,12.675,100.086,0.0011061
4.76,67.0066,12.675,100.087,0.0012434
4.81,67.5067,12.675,100.087,0.0007825
4.86,68.0068,12.675,100.088,0.0010122
4.91,68.5069,12.675,100.088,0.0010120
4.96,69.007,12.676,100.089,0.0007355
5.01,69.5071,12.676,100.09,0.0014709
5.06,70.0071,12.676,100.09,0.0014706
5.11,70.5072,12.676,100.091,0.0011025
5.16,71.0073,12.676,100.091,0.0010556
5.22,71.5074,12.676,100.092,0.0012848
5.27,72.0075,12.676,100.092,0.0007343
5.32,72.5076,12.676,100.093,0.0012389
5.37,73.0077,12.676,100.094,0.0010097
5.42,73.5078,12.676,100.094,0.0016969
5.47,74.0079,12.676,100.095,0.0010546
5.52,74.5079,12.676,100.095,0.0010549
5.57,75.008,12.676,100.096,0.0008256
5.62,75.5081,12.676,100.096,0.0016055
5.67,76.0082,12.676,100.097,0.0007332
5.72,76.5083,12.677,100.097,0.0011457
5.77,77.0084,12.677,100.098,0.0011454
5.82,77.5085,12.677,100.098,0.0010076
5.87,78.0086,12.677,100.099,0.0010535
5.92,78.5087,12.677,100.099,0.0008701
5.97,79.0088,12.677,100.1,0.0008243
6.02,79.5088,12.677,100.1,0.0006411
6.07,80.0089,12.677,100.1,0.0005493
6.12,80.509,12.677,100.101,0.0008239
6.17,81.0091,12.677,100.101,0.0002745
6.22,81.5092,12.677,100.102,0.0006863
6.27,82.0093,12.677,100.102,0.0007780
6.32,82.5094,12.677,100.103,0.0008240
6.37,83.0095,12.677,100.103,0.0010532
6.42,83.5096,12.677,100.104,0.0011906
6.47,84.0096,12.677,100.104,0.0011445
6.52,84.5097,12.677,100.104,0.0009158
6.57,85.0098,12.678,100.105,0.0009158
6.62,85.5099,12.678,100.105,0.0010987
6.67,86.01,12.678,100.106,0.0009614
6.72,86.5101,12.678,100.106,0.0010527
6.77,87.0102,12.678,100.106,0.0008240
6.82,87.5103,12.678,100.107,0.0005034
6.87,88.0104,12.678,100.107,0.0007779
6.92,88.5104,12.678,100.108,0.0006406
6.97,89.0105,12.678,100.108,0.0009610
7.02,89.5106,12.678,100.108,0.0012805
7.07,90.0107,12.678,100.109,0.0001372
7.12,90.5108,12.678,100.109,0.0004571
7.17,91.0109,12.678,100.109,0.0006860
7.22,91.511,12.678,100.109,0.0005945
7.27,92.0111,12.678,100.11,0.0007772
7.32,92.5112,12.678,100.11,0.0005488
7.37,93.0113,12.678,100.11,0.0005489
7.42,93.5113,12.678,100.111,0.0007321
7.47,94.0114,12.678,100.111,0.0001830
7.52,94.5115,12.678,100.111,0.0003661
7.57,95.0116,12.678,100.111,0.0005946
7.62,95.5117,12.678,100.112,0.0008688
7.67,96.0118,12.678,100.112,0.0010059
7.72,96.5119,12.678,100.112,0.0000914
7.77,97.012,12.678,100.113,0.0003656
7.82,97.5121,12.679,100.113,0.0007771
7.87,98.0121,12.679,100.113,0.0005944
7.92,98.5122,12.679,100.113,0.0005489
7.97,99.0123,12.679,100.114,0.0005949
8.02,99.5124,12.679,100.114,0.0006407
8.07,100.013,12.679,100.114,0.0008696
8.12,100.513,12.679,100.114,0.0003660
8.17,101.013,12.679,100.115,0.0005487
8.22,101.513,12.679,100.115,0.0005944
8.27,102.013,12.679,100.115,0.0005945
8.32,102.513,12.679,100.115,0.0000457
8.37,103.013,12.679,100.116,0.0007323
8.42,103.513,12.679,100.116,0.0000916
8.47,104.013,12.679,100.116,0.0003205
8.52,104.513,12.679,100.116,0.0002288
8.57,105.013,12.679,100.116,0.0001831
8.62,105.513,12.679,100.117,0.0004581
8.67,106.014,12.679,100.117,0.0003207
8.72,106.514,12.679,100.117,0.0005041
8.77,107.014,12.679,100.117,0.0008244
8.82,107.514,12.679,100.117,0.0000915
8.87,108.014,12.679,100.118,0.0002287
8.92,108.514,12.679,100.118,0.0005944
8.97,109.014,12.679,100.118,0.0000915
9.02,109.514,12.679,100.118,0.0005950
9.07,110.014,12.679,100.118,0.0007776
9.12,110.514,12.679,100.118,0.0000000
9.17,111.014,12.679,100.118,0.0002744
9.22,111.515,12.679,100.119,0.0000000
9.27,112.015,12.679,100.119,0.0005035
9.32,112.515,12.679,100.119,0.0000000
9.37,113.015,12.679,100.119,0.0004579
9.42,113.515,12.679,100.119,0.0002748
9.47,114.015,12.679,100.119,0.0005035
9.52,114.515,12.679,100.119,0.0004575
9.57,115.015,12.679,100.12,0.0002747
9.62,115.515,12.679,100.12,-0.0002290
9.67,116.015,12.679,100.12,0.0001833
9.72,116.515,12.679,100.12,0.0000917
9.77,117.016,12.679,100.12,0.0003666
9.82,117.516,12.679,100.12,0.0002747
9.87,118.016,12.679,100.12,0.0002747
9.92,118.516,12.68,100.121,0.0003664
9.97,119.016,12.68,100.121,0.0004584
10.02,119.516,12.68,100.121,0.0002749
10.07,120.016,12.68,100.121,0.0005957
10.12,120.516,12.68,100.121,0.0001375
10.17,121.016,12.68,100.121,0.0003207
10.22,121.516,12.68,100.121,0.0001375
10.27,122.016,12.68,100.121,-0.0000458
10.32,122.517,12.68,100.121,0.0002290
10.37,123.017,12.68,100.122,0.0001374
10.42,123.517,12.68,100.122,0.0004123
10.47,124.017,12.68,100.122,0.0001832
10.52,124.517,12.68,100.122,0.0001374
10.57,125.017,12.68,100.122,-0.0001833
10.62,125.517,12.68,100.122,0.0000000
10.67,126.017,12.68,100.122,0.0006415
10.72,126.517,12.68,100.123,0.0005496
10.77,127.017,12.68,100.123,0.0005497
10.82,127.517,12.68,100.123,0.0007330
10.87,128.018,12.68,100.124,0.0005497
10.92,128.518,12.68,100.124,0.0005956
10.97,129.018,12.68,100.124,0.0004581
11.02,129.518,12.68,100.124,0.0005041
11.07,130.018,12.68,100.124,0.0003211
11.12,130.518,12.68,100.124,0.0002294
11.17,131.018,12.68,100.125,0.0005508
11.22,131.518,12.68,100.125,0.0003674
11.27,132.018,12.68,100.125,-0.0000460
11.32,132.518,12.68,100.125,0.0003677
11.37,133.018,12.68,100.125,0.0000459
11.42,133.518,12.68,100.126,0.0002294
11.47,134.019,12.68,100.126,0.0000916
11.52,134.519,12.68,100.126,0.0005033
11.57,135.019,12.68,100.126,0.0001828
11.62,135.519,12.68,100.127,0.0004578
11.67,136.019,12.68,100.127,0.0002748
11.72,136.519,12.68,100.127,0.0004581
11.77,137.019,12.68,100.127,0.0002289
11.82,137.519,12.68,100.127,0.0005950
11.87,138.019,12.68,100.128,0.0003662
11.92,138.519,12.68,100.128,0.0000916
11.97,139.019,12.68,100.128,0.0000916
12.02,139.52,12.68,100.128,-0.0006859
12.07,140.02,12.68,100.128,-0.0005027
12.12,140.52,12.68,100.127,-0.0009598
12.17,141.02,12.68,100.127,-0.0006856
12.22,141.52,12.68,100.126,-0.0011412
12.27,142.02,12.68,100.126,-0.0013657
12.32,142.52,12.68,100.125,-0.0017727
12.37,143.02,12.68,100.124,-0.0020911
12.42,143.52,12.68,100.123,-0.0017743
12.47,144.02,12.68,100.122,-0.0024557
12.52,144.52,12.68,100.121,-0.0018630
12.57,145.021,12.679,100.12,-0.0019546
12.62,145.521,12.679,100.119,-0.0016818
12.67,146.021,12.679,100.118,-0.0015931
12.72,146.521,12.679,100.118,-0.0015041
12.77,147.021,12.679,100.117,-0.0014618
12.82,147.521,12.679,100.116,-0.0016479
12.87,148.021,12.679,100.115,-0.0013729
12.92,148.521,12.679,100.115,-0.0016015
12.97,149.021,12.679,100.114,-0.0012356
13.02,149.521,12.679,100.114,-0.0008244
13.07,150.021,12.679,100.113,-0.0008245
13.12,150.522,12.679,100.113,-0.0010092
13.17,151.022,12.678,100.112,-0.0009640
13.22,151.522,12.678,100.112,-0.0006431
13.27,152.022,12.678,100.112,-0.0007814
13.32,152.522,12.678,100.111,-0.0008736
13.37,153.022,12.678,100.111,-0.0002757
13.42,153.522,12.678,100.111,-0.0006890
13.47,154.022,12.678,100.111,-0.0000918
13.52,154.522,12.678,100.11,-0.0001836
13.57,155.022,12.678,100.11,-0.0003672
13.62,155.522,12.678,100.11,-0.0000459
13.67,156.023,12.678,100.11,-0.0005051
13.72,156.523,12.678,100.11,-0.0004591
13.77,157.023,12.678,100.11,-0.0006885
13.82,157.523,12.678,100.109,-0.0005512
13.87,158.023,12.678,100.109,-0.0002296
13.92,158.523,12.678,100.109,-0.0004595
13.97,159.023,12.678,100.109,-0.0000460
14.02,159.523,12.678,100.108,-0.0002756
14.07,160.023,12.678,100.108,-0.0000919
14.12,160.523,12.678,100.108,-0.0002758
14.17,161.023,12.678,100.108,-0.0004597
14.22,161.523,12.678,100.108,-0.0003214
14.27,162.024,12.678,100.108,-0.0003666
14.32,162.524,12.678,100.108,-0.0000916
14.37,163.024,12.678,100.107,-0.0005034
14.42,163.524,12.678,100.107,-0.0005032
14.47,164.024,12.678,100.107,0.0001372
14.52,164.524,12.678,100.107,-0.0006861
14.57,165.024,12.678,100.107,-0.0003660
14.62,165.524,12.678,100.107,-0.0005496
14.67,166.024,12.678,100.106,-0.0003667
14.72,166.524,12.678,100.106,-0.0002296
14.77,167.024,12.678,100.106,-0.0002296
14.82,167.525,12.678,100.106,0.0001839
14.87,168.025,12.678,100.106,-0.0003223
14.92,168.525,12.678,100.106,-0.0003224
14.97,169.025,12.678,100.105,-0.0003219
15.02,169.525,12.678,100.105,-0.0000918
15.07,170.025,12.678,100.105,-0.0005051
15.12,170.525,12.678,100.105,-0.0003216
15.17,171.025,12.677,100.105,-0.0005052
15.22,171.525,12.677,100.105,-0.0005960
15.27,172.025,12.677,100.104,-0.0000458
15.32,172.525,12.677,100.104,-0.0004577
15.37,173.026,12.677,100.104,-0.0002744
15.42,173.526,12.677,100.104,-0.0003201
15.47,174.026,12.677,100.103,-0.0002287
15.52,174.526,12.677,100.103,-0.0003204
15.57,175.026,12.677,100.103,-0.0001831
15.62,175.526,12.677,100.103,-0.0004122
15.67,176.026,12.677,100.103,-0.0000916
15.72,176.526,12.677,100.103,-0.0000000
15.77,177.026,12.677,100.103,-0.0000917
15.82,177.526,12.677,100.103,0.0000000
15.87,178.026,12.677,100.103,-0.0001834
15.92,178.527,12.677,100.103,-0.0000916
15.97,179.027,12.677,100.102,-0.0000458
16.02,179.527,12.677,100.102,-0.0002289
16.07,180.027,12.677,100.102,-0.0005951
16.12,180.527,12.677,100.102,-0.0005038
16.17,181.027,12.677,100.102,-0.0005956
16.22,181.527,12.677,100.102,-0.0006413
16.27,182.027,12.677,100.101,-0.0005041
16.32,182.527,12.677,100.101,-0.0002288
16.37,183.027,12.677,100.101,-0.0000915
16.42,183.527,12.677,100.101,-0.0002746
16.47,184.028,12.677,100.101,-0.0003209
16.52,184.528,12.677,100.1,-0.0005503
16.57,185.028,12.677,100.1,-0.0003670
16.62,185.528,12.677,100.1,-0.0005960
16.67,186.028,12.677,100.1,-0.0000916
16.72,186.528,12.677,100.1,-0.0005500
16.77,187.028,12.677,100.1,-0.0004124
16.82,187.528,12.677,100.099,-0.0002291
16.87,188.028,12.677,100.099,-0.0004584
16.92,188.528,12.677,100.099,-0.0002750
16.97,189.028,12.677,100.099,-0.0001374
17.02,189.528,12.677,100.099,-0.0004121
17.07,190.029,12.677,100.098,-0.0002286
17.12,190.529,12.677,100.098,-0.0000914
17.17,191.029,12.677,100.098,-0.0005939
17.22,191.529,12.677,100.098,-0.0005027
17.27,192.029,12.677,100.098,-0.0004579
17.32,192.529,12.677,100.098,-0.0003211
17.37,193.029,12.677,100.097,-0.0005055
17.42,193.529,12.677,100.097,-0.0003681
17.47,194.029,12.677,100.097,0.0001381
17.52,194.529,12.677,100.097,-0.0002301
17.57,195.029,12.677,100.097,-0.0002757
17.62,195.53,12.677,100.097,0.0001834
17.67,196.03,12.676,100.097,-0.0002747
17.72,196.53,12.676,100.097,-0.0000915
17.77,197.03,12.676,100.096,-0.0002284
17.82,197.53,12.676,100.096,-0.0004108
17.88,198.03,12.676,100.096,-0.0004566
17.93,198.53,12.676,100.096,-0.0005943
17.98,199.03,12.676,100.096,-0.0006866
18.03,199.53,12.676,100.095,-0.0002750
18.08,200.03,12.676,100.095,-0.0005503
18.13,200.53,12.676,100.095,-0.0005043
18.18,201.031,12.676,100.095,-0.0001834
18.23,201.531,12.676,100.095,0.0000000
18.28,202.031,12.676,100.095,-0.0000918
18.33,202.531,12.676,100.095,-0.0003212
18.38,203.031,12.676,100.095,-0.0003211
18.43,203.531,12.676,100.094,-0.0006421
18.48,204.031,12.676,100.094,-0.0005966
18.53,204.531,12.676,100.094,-0.0005045
18.58,205.031,12.676,100.094,-0.0003209
18.63,205.531,12.676,100.094,-0.0003665
18.68,206.031,12.676,100.093,-0.0000001
18.73,206.532,12.676,100.093,-0.0003660
18.78,207.032,12.676,100.093,-0.0005495
18.83,207.532,12.676,100.093,-0.0001375
18.88,208.032,12.676,100.092,-0.0004580
18.93,208.532,12.676,100.092,-0.0004575
18.98,209.032,12.676,100.092,-0.0005948
19.03,209.532,12.676,100.092,-0.0004580
19.08,210.032,12.676,100.092,-0.0009168
19.13,210.532,12.676,100.091,-0.0003208
19.18,211.032,12.676,100.091,-0.0003208
19.23,211.532,12.676,100.091,-0.0004585
19.28,212.033,12.676,100.091,-0.0005505
19.33,212.533,12.676,100.091,-0.0004128
19.38,213.033,12.676,100.09,-0.0006874
19.43,213.533,12.676,100.09,-0.0002750
19.48,214.033,12.676,100.09,-0.0001833
19.53,214.533,12.676,100.09,-0.0002292
19.58,215.033,12.676,100.09,-0.0003205
19.63,215.533,12.676,100.09,-0.0002288
19.68,216.033,12.676,100.089,-0.0000915
19.73,216.533,12.676,100.089,-0.0005035
19.78,217.033,12.675,100.089,-0.0002290
19.83,217.533,12.675,100.089,-0.0003664
19.88,218.034,12.675,100.088,-0.0000916
19.93,218.534,12.675,100.088,-0.0006878
19.98,219.034,12.675,100.088,-0.0005965
20.03,219.534,12.675,100.088,-0.0004593
20.08,220.034,12.675,100.087,-0.0007804
20.13,220.534,12.675,100.087,-0.0006879
20.18,221.034,12.675,100.087,-0.0003208
20.23,221.534,12.675,100.087,-0.0002292
20.28,222.034,12.675,100.087,-0.0001833
20.33,222.534,12.675,100.086,-0.0001828
20.38,223.034,12.675,100.086,-0.0003191
20.43,223.535,12.675,100.086,-0.0004101
20.48,224.035,12.675,100.086,-0.0007323
20.53,224.535,12.675,100.086,-0.0005044
20.58,225.035,12.675,100.085,-0.0004585
20.63,225.535,12.675,100.085,-0.0004584
20.68,226.035,12.675,100.085,-0.0007781
20.73,226.535,12.675,100.085,-0.0003202
20.78,227.035,12.675,100.084,-0.0003210
20.83,227.535,12.675,100.084,-0.0008734
20.88,228.035,12.675,100.084,-0.0002298
20.93,228.535,12.675,100.084,-0.0007344
20.98,229.036,12.675,100.084,-0.0007335
21.03,229.536,12.675,100.083,-0.0006871
21.08,230.036,12.675,100.083,-0.0003207
21.13,230.536,12.675,100.083,-0.0005039
21.18,231.036,12.675,100.083,-0.0003206
21.23,231.536,12.675,100.083,-0.0002289
21.28,232.036,12.675,100.082,-0.0003660
21.33,232.536,12.675,100.082,-0.0004571
21.38,233.036,12.675,100.082,-0.0005487
21.43,233.536,12.675,100.082,-0.0001829
21.48,234.036,12.675,100.081,-0.0005492
21.53,234.537,12.674,100.081,-0.0001832
21.58,235.037,12.674,100.081,-0.0007331
21.63,235.537,12.674,100.081,-0.0000917
21.68,236.037,12.674,100.08,-0.0006530
21.73,236.537,12.674,100.08,-0.0005126
21.78,237.037,12.674,100.08,-0.0005099
21.83,237.537,12.674,100.08,-0.0007372
21.88,238.037,12.674,100.08,-0.0002750
21.93,238.537,12.674,100.079,-0.0004562
21.98,239.037,12.674,100.079,-0.0005460
22.03,239.537,12.674,100.079,-0.0001364
22.08,240.038,12.674,100.079,0.0000909
22.13,240.538,12.674,100.078,-0.0002271
22.18,241.038,12.674,100.078,-0.0004548
22.23,241.538,12.674,100.078,-0.0003639
22.28,242.038,12.674,100.078,-0.0003643
22.33,242.538,12.674,100.078,-0.0004113
22.38,243.038,12.674,100.077,-0.0005949
22.43,243.538,12.674,100.077,-0.0007786
22.48,244.038,12.674,100.077,-0.0001832
22.53,244.538,12.674,100.077,-0.0003204
22.58,245.038,12.674,100.076,-0.0004121
22.63,245.538,12.674,100.076,-0.0006868
22.68,246.039,12.674,100.076,-0.0004121
22.73,246.539,12.674,100.076,-0.0005034
22.78,247.039,12.674,100.075,-0.0005949
22.83,247.539,12.674,100.075,-0.0005954
22.88,248.039,12.674,100.075,-0.0005499
22.93,248.539,12.674,100.074,-0.0006418
22.98,249.039,12.674,100.074,-0.0004585
23.03,249.539,12.674,100.074,-0.0003209
23.08,250.039,12.674,100.074,-0.0003668
23.13,250.539,12.674,100.073,-0.0001833
23.18,251.039,12.674,100.073,-0.0002748
23.23,251.54,12.673,100.073,-0.0003204
23.28,252.04,12.673,100.073,-0.0005947
23.33,252.54,12.673,100.073,-0.0004575
23.38,253.04,12.673,100.072,-0.0001829
23.43,253.54,12.673,100.072,-0.0005037
23.48,254.04,12.673,100.072,-0.0006421
23.53,254.54,12.673,100.072,-0.0005965
23.58,255.04,12.673,100.072,-0.0003211
23.63,255.54,12.673,100.071,-0.0004583
23.68,256.04,12.673,100.071,-0.0004584
23.73,256.54,12.673,100.071,-0.0004584
23.78,257.041,12.673,100.071,-0.0005959
23.83,257.541,12.673,100.07,-0.0005958
23.88,258.041,12.673,100.07,-0.0006877
23.93,258.541,12.673,100.07,-0.0006875
23.98,259.041,12.673,100.07,-0.0006410
24.03,259.541,12.673,100.069,-0.0005037
24.08,260.041,12.673,100.069,-0.0000458
24.13,260.541,12.673,100.069,-0.0004576
24.18,261.041,12.673,100.069,-0.0003666
24.23,261.541,12.673,100.068,-0.0005961
24.28,262.041,12.673,100.068,-0.0006885
24.33,262.542,12.673,100.068,-0.0005505
24.38,263.042,12.673,100.067,-0.0006877
24.43,263.542,12.673,100.067,-0.0003209
24.48,264.042,12.673,100.067,-0.0005956
24.53,264.542,12.673,100.066,-0.0008692
24.58,265.042,12.673,100.066,-0.0009610
24.63,265.542,12.673,100.066,-0.0007784
24.68,266.042,12.673,100.065,-0.0003665
24.73,266.542,12.672,100.065,-0.0006865
24.78,267.042,12.672,100.065,-0.0005945
24.83,267.542,12.672,100.065,-0.0004574
24.88,268.043,12.672,100.064,-0.0005035
24.93,268.543,12.672,100.064,-0.0006865
24.98,269.043,12.672,100.064,-0.0005498
25.03,269.543,12.672,100.063,-0.0005039
25.08,270.043,12.672,100.063,-0.0007788
25.13,270.543,12.672,100.063,-0.0002292
25.18,271.043,12.672,100.063,-0.0005038
25.23,271.543,12.672,100.062,-0.0005037
25.28,272.043,12.672,100.062,-0.0005496
25.33,272.543,12.672,100.062,-0.0005037
25.38,273.043,12.672,100.061,-0.0004121
25.43,273.543,12.672,100.061,-0.0007777
25.48,274.044,12.672,100.061,-0.0008695
25.53,274.544,12.672,100.06,-0.0005958
25.58,275.044,12.672,100.06,-0.0013767
25.63,275.544,12.672,100.06,-0.0006884
25.68,276.044,12.672,100.059,-0.0007803
25.73,276.544,12.672,100.059,-0.0005963
25.78,277.044,12.672,100.058,-0.0005508
25.83,277.544,12.672,100.058,-0.0006878
25.88,278.044,12.672,100.058,-0.0009162
25.93,278.544,12.672,100.058,-0.0005936
25.98,279.044,12.671,100.057,-0.0005934
26.03,279.545,12.671,100.057,-0.0005027
26.08,280.045,12.671,100.057,-0.0005498
26.13,280.545,12.671,100.056,-0.0009169
26.18,281.045,12.671,100.056,-0.0004587
26.23,281.545,12.671,100.055,-0.0004583
26.28,282.045,12.671,100.055,-0.0007337
26.33,282.545,12.671,100.055,-0.0005962
26.38,283.045,12.671,100.054,-0.0006877
26.43,283.545,12.671,100.054,-0.0009166
26.48,284.045,12.671,100.054,-0.0009615
26.53,284.545,12.671,100.053,-0.0010537
26.58,285.046,12.671,100.053,-0.0009160
26.63,285.546,12.671,100.052,-0.0005959
26.68,286.046,12.671,100.052,-0.0009166
26.73,286.546,12.671,100.052,-0.0006412
26.78,287.046,12.671,100.051,-0.0007791
26.83,287.546,12.671,100.051,-0.0006418
26.88,288.046,12.671,100.05,-0.0007335
26.93,288.546,12.671,100.05,-0.0005502
26.98,289.046,12.671,100.05,-0.0008244
27.03,289.546,12.67,100.049,-0.0009152
27.08,290.046,12.67,100.049,-0.0008695
27.13,290.547,12.67,100.048,-0.0009174
27.18,291.047,12.67,100.048,-0.0008257
27.23,291.547,12.67,100.048,-0.0009166
27.28,292.047,12.67,100.047,-0.0006862
27.33,292.547,12.67,100.047,-0.0006862
27.38,293.047,12.67,100.046,-0.0008679
27.43,293.547,12.67,100.046,-0.0005482
27.48,294.047,12.67,100.046,-0.0005946
27.53,294.547,12.67,100.045,-0.0010527
27.58,295.047,12.67,100.045,-0.0007791
27.63,295.547,12.67,100.044,-0.0006881
27.68,296.048,12.67,100.044,-0.0010087
27.73,296.548,12.67,100.043,-0.0009626
27.78,297.048,12.67,100.043,-0.0014194
27.83,297.548,12.67,100.042,-0.0011441
27.88,298.048,12.67,100.042,-0.0011453
27.93,298.548,12.669,100.042,-0.0009630
27.98,299.048,12.669,100.041,-0.0007794
28.03,299.548,12.669,100.041,-0.0008706
28.08,300.048,12.669,100.04,-0.0010068
28.13,300.548,12.669,100.04,-0.0008688
28.18,301.048,12.669,100.039,-0.0011889
28.23,301.548,12.669,100.039,-0.0010061
28.28,302.049,12.669,100.038,-0.0008229
28.33,302.549,12.669,100.038,-0.0011441
28.38,303.049,12.669,100.037,-0.0007330
28.43,303.549,12.669,100.037,-0.0011916
28.48,304.049,12.669,100.036,-0.0011447
28.53,304.549,12.669,100.036,-0.0010077
28.58,305.049,12.669,100.035,-0.0010999
28.63,305.549,12.669,100.035,-0.0006877
28.68,306.049,12.669,100.034,-0.0008246
28.73,306.549,12.669,100.034,-0.0013743
28.78,307.049,12.668,100.033,-0.0010079
28.83,307.55,12.668,100.033,-0.0012367
28.88,308.05,12.668,100.032,-0.0010537
28.93,308.55,12.668,100.032,-0.0011458
28.98,309.05,12.668,100.031,-0.0010531
29.03,309.55,12.668,100.031,-0.0011440
29.08,310.05,12.668,100.03,-0.0014179
29.13,310.55,12.668,100.03,-0.0012808
29.18,311.05,12.668,100.029,-0.0012358
29.23,311.55,12.668,100.029,-0.0011898
29.28,312.05,12.668,100.028,-0.0011447
29.33,312.55,12.668,100.027,-0.0013283
29.38,313.051,12.668,100.027,-0.0015576
29.43,313.551,12.668,100.026,-0.0009624
29.48,314.051,12.667,100.026,-0.0009158
29.53,314.551,12.667,100.025,-0.0010073
29.58,315.051,12.667,100.025,-0.0010064
29.63,315.551,12.667,100.024,-0.0012825
29.68,316.051,12.667,100.024,-0.0012837
29.73,316.551,12.667,100.023,-0.0012837
29.78,317.051,12.667,100.022,-0.0008249
29.83,317.551,12.667,100.022,-0.0010531
29.88,318.051,12.667,100.021,-0.0010535
29.93,318.552,12.667,100.021,-0.0010528
29.98,319.052,12.667,100.02,-0.0010073
30.03,319.552,12.667,100.019,-0.0011447
30.08,320.052,12.667,100.019,-0.0011453
30.13,320.552,12.667,100.018,-0.0016954
30.18,321.052,12.666,100.018,-0.0015568
30.23,321.552,12.666,100.017,-0.0010993
30.28,322.052,12.666,100.016,-0.0015096
30.33,322.552,12.666,100.016,-0.0013260
30.38,323.052,12.666,100.015,-0.0015557
30.43,323.552,12.666,100.014,-0.0012363
30.48,324.053,12.666,100.014,-0.0013746
30.53,324.553,12.666,100.013,-0.0011927
30.58,325.053,12.666,100.012,-0.0011927
30.63,325.553,12.666,100.012,-0.0012374
30.68,326.053,12.666,100.011,-0.0008707
30.73,326.553,12.666,100.011,-0.0014196
30.78,327.053,12.665,100.01,-0.0013273
30.83,327.553,12.665,100.009,-0.0013711
30.88,328.053,12.665,100.009,-0.0016463
30.93,328.553,12.665,100.008,-0.0015104
30.98,329.053,12.665,100.007,-0.0015110
31.03,329.553,12.665,100.006,-0.0009613
31.08,330.054,12.665,100.006,-0.0013269
31.13,330.554,12.665,100.005,-0.0010980
31.18,331.054,12.665,100.004,-0.0015102
31.23,331.554,12.665,100.004,-0.0014660
31.28,332.054,12.665,100.003,-0.0014660
31.33,332.554,12.665,100.002,-0.0015124
31.38,333.054,12.664,100.002,-0.0010545
31.43,333.554,12.664,100.001,-0.0016055
31.48,334.054,12.664,100,-0.0014215
31.53,334.554,12.664,100,-0.0016957
31.58,335.054,12.664,99.999,-0.0013736
31.63,335.555,12.664,99.998,-0.0013741
31.68,336.055,12.664,99.997,-0.0013736
31.73,336.555,12.664,99.997,-0.0009158
31.78,337.055,12.664,99.996,-0.0017409
31.83,337.555,12.664,99.995,-0.0014652
31.88,338.055,12.663,99.994,-0.0017857
31.93,338.555,12.663,99.993,-0.0014639
31.98,339.055,12.663,99.993,-0.0016932
32.03,339.555,12.663,99.992,-0.0016475
32.08,340.055,12.663,99.991,-0.0020135
32.13,340.555,12.663,99.99,-0.0020604
32.18,341.056,12.663,99.989,-0.0018783
32.23,341.556,12.663,99.988,-0.0016960
32.28,342.056,12.663,99.987,-0.0019699
32.33,342.556,12.663,99.986,-0.0016951
32.38,343.056,12.662,99.986,-0.0016493
32.43,343.556,12.662,99.985,-0.0016941
32.48,344.056,12.662,99.984,-0.0018773
32.53,344.556,12.662,99.983,-0.0021050
32.58,345.056,12.662,99.982,-0.0017851
32.63,345.556,12.662,99.981,-0.0018302
32.68,346.056,12.662,99.98,-0.0020139
32.73,346.557,12.662,99.979,-0.0013726
32.78,347.057,12.661,99.978,-0.0020131
32.83,347.557,12.661,99.977,-0.0018766
32.88,348.057,12.661,99.976,-0.0020604
32.93,348.557,12.661,99.975,-0.0020616
32.98,349.057,12.661,99.974,-0.0016492
33.03,349.557,12.661,99.973,-0.0018787
33.08,350.057,12.661,99.972,-0.0022906
33.13,350.557,12.661,99.971,-0.0020593
33.18,351.057,12.661,99.97,-0.0022403
33.23,351.557,12.66,99.969,-0.0017374
33.28,352.058,12.66,99.968,-0.0020589
33.33,352.558,12.66,99.967,-0.0021051
33.38,353.058,12.66,99.966,-0.0019231
33.43,353.558,12.66,99.965,-0.0024290
33.48,354.058,12.66,99.964,-0.0021082
33.53,354.558,12.66,99.963,-0.0022923
33.59,355.058,12.659,99.962,-0.0018807
33.64,355.558,12.659,99.961,-0.0022477
33.69,356.058,12.659,99.96,-0.0020634
33.74,356.558,12.659,99.958,-0.0018786
33.79,357.058,12.659,99.957,-0.0023352
33.84,357.558,12.659,99.956,-0.0023339
33.89,358.059,12.659,99.955,-0.0028363
33.94,358.559,12.658,99.954,-0.0025608
33.99,359.059,12.658,99.952,-0.0027442
34.04,359.559,12.658,99.951,-0.0025618
34.09,360.059,12.658,99.95,-0.0025613
34.14,360.559,12.658,99.948,-0.0025137
34.19,361.059,12.658,99.947,-0.0021036
34.24,361.559,12.657,99.946,-0.0029266
34.29,362.059,12.657,99.945,-0.0028831
34.34,362.559,12.657,99.943,-0.0027970
34.39,363.059,12.657,99.942,-0.0028889
34.44,363.56,12.657,99.94,-0.0030275
34.49,364.06,12.656,99.939,-0.0030706
34.54,364.56,12.656,99.937,-0.0033425
34.59,365.06,12.656,99.936,-0.0032509
34.64,365.56,12.656,99.934,-0.0032051
34.69,366.06,12.656,99.933,-0.0031118
34.74,366.56,12.655,99.931,-0.0028820
34.79,367.06,12.655,99.929,-0.0033407
34.84,367.56,12.655,99.928,-0.0031577
34.89,368.06,12.655,99.926,-0.0033437
34.94,368.56,12.655,99.924,-0.0031136
34.99,369.061,12.654,99.923,-0.0034779
35.04,369.561,12.654,99.921,-0.0036126
35.09,370.061,12.654,99.919,-0.0035623
35.14,370.561,12.654,99.917,-0.0037450
35.19,371.061,12.653,99.915,-0.0039784
35.24,371.561,12.653,99.913,-0.0039377
35.29,372.061,12.653,99.911,-0.0038060
35.34,372.561,12.653,99.909,-0.0041720
35.39,373.061,12.652,99.907,-0.0041247
35.44,373.561,12.652,99.905,-0.0043056
35.49,374.061,12.652,99.903,-0.0043956
35.54,374.562,12.652,99.9,-0.0043522
35.59,375.062,12.651,99.898,-0.0044872
35.64,375.562,12.651,99.896,-0.0047161
35.69,376.062,12.651,99.893,-0.0047637
35.74,376.562,12.65,99.891,-0.0048094
35.79,377.062,12.65,99.889,-0.0052218
35.84,377.562,12.65,99.886,-0.0048993
35.89,378.062,12.649,99.883,-0.0051282
35.94,378.562,12.649,99.881,-0.0049863
35.99,379.062,12.649,99.878,-0.0056236
36.04,379.562,12.648,99.875,-0.0058554
36.09,380.063,12.648,99.872,-0.0054438
36.14,380.563,12.648,99.869,-0.0059469
36.19,381.063,12.647,99.867,-0.0059959
36.24,381.563,12.647,99.863,-0.0064067
36.29,382.063,12.647,99.86,-0.0065476
36.34,382.563,12.646,99.857,-0.0067766
36.39,383.063,12.646,99.854,-0.0064103
36.44,383.563,12.645,99.85,-0.0070017
36.49,384.063,12.645,99.847,-0.0074176
36.54,384.563,12.644,99.843,-0.0073260
36.59,385.063,12.644,99.84,-0.0073704
36.64,385.563,12.643,99.836,-0.0079140
36.69,386.064,12.643,99.832,-0.0079982
36.74,386.564,12.642,99.828,-0.0081397
36.79,387.064,12.642,99.824,-0.0087374
36.84,387.564,12.641,99.82,-0.0085165
36.89,388.064,12.641,99.815,-0.0089793
36.94,388.564,12.64,99.811,-0.0092949
36.99,389.064,12.64,99.806,-0.0093864
37.04,389.564,12.639,99.801,-0.0097527
37.09,390.064,12.638,99.797,-0.0098443
37.14,390.564,12.638,99.792,-0.0100640
37.19,391.064,12.637,99.787,-0.0101134
37.24,391.565,12.637,99.781,-0.0108019
37.29,392.065,12.636,99.776,-0.0111264
37.34,392.565,12.635,99.77,-0.0110348
37.39,393.065,12.634,99.765,-0.0113033
37.44,393.565,12.634,99.759,-0.0119919
37.49,394.065,12.633,99.753,-0.0117259
37.54,394.565,12.632,99.747,-0.0126878
37.59,395.065,12.631,99.741,-0.0124542
37.64,395.565,12.631,99.734,-0.0127677
37.69,396.065,12.63,99.728,-0.0130328
37.74,396.565,12.629,99.721,-0.0133071
37.79,397.066,12.628,99.714,-0.0139473
37.84,397.566,12.627,99.707,-0.0136829
37.89,398.066,12.626,99.7,-0.0143184
37.94,398.566,12.625,99.692,-0.0149131
37.99,399.066,12.624,99.685,-0.0152389
38.04,399.566,12.623,99.677,-0.0159195
38.09,400.066,12.622,99.669,-0.0160714
38.14,400.566,12.621,99.661,-0.0163859
38.19,401.066,12.62,99.653,-0.0169778
38.24,401.566,12.619,99.644,-0.0171546
38.29,402.066,12.618,99.635,-0.0180696
38.34,402.567,12.617,99.626,-0.0185727
38.39,403.067,12.616,99.617,-0.0190336
38.44,403.567,12.614,99.607,-0.0197091
38.49,404.067,12.613,99.597,-0.0198536
38.54,404.567,12.612,99.587,-0.0203568
38.59,405.067,12.611,99.577,-0.0209553
38.64,405.567,12.609,99.566,-0.0213632
38.69,406.067,12.608,99.556,-0.0223108
38.74,406.567,12.607,99.544,-0.0227564
38.79,407.067,12.605,99.533,-0.0230311
38.84,407.567,12.604,99.521,-0.0236591
38.89,408.068,12.602,99.509,-0.0247117
38.94,408.568,12.6,99.496,-0.0253338
38.99,409.068,12.599,99.483,-0.0258920
39.04,409.568,12.597,99.47,-0.0260292
39.09,410.068,12.595,99.457,-0.0272286
39.14,410.568,12.594,99.443,-0.0279150
39.19,411.068,12.592,99.429,-0.0285714
39.24,411.568,12.59,99.414,-0.0296703
39.29,412.068,12.588,99.399,-0.0302947
39.34,412.568,12.586,99.384,-0.0311528
39.39,413.068,12.584,99.368,-0.0326166
39.44,413.568,12.582,99.352,-0.0328117
39.49,414.069,12.58,99.335,-0.0340473
39.54,414.569,12.578,99.318,-0.0349028
39.59,415.069,12.576,99.3,-0.0358319
39.64,415.569,12.573,99.282,-0.0365832
39.69,416.069,12.571,99.263,-0.0378913
39.74,416.569,12.569,99.244,-0.0385037
39.79,417.069,12.566,99.225,-0.0394111
39.84,417.569,12.564,99.205,-0.0404614
39.89,418.069,12.561,99.184,-0.0414377
39.94,418.569,12.558,99.163,-0.0428337
39.99,419.069,12.556,99.142,-0.0437568
40.04,419.57,12.553,99.12,-0.0450137
40.09,420.07,12.55,99.097,-0.0464096
40.14,420.57,12.547,99.074,-0.0478062
40.19,421.07,12.544,99.05,-0.0492868
40.24,421.57,12.541,99.025,-0.0507048
40.29,422.07,12.537,98.998,-0.0526268
40.34,422.57,12.534,98.971,-0.0539081
40.39,423.07,12.53,98.944,-0.0559373
40.44,423.57,12.527,98.915,-0.0579212
40.49,424.07,12.523,98.886,-0.0599121
40.54,424.57,12.519,98.855,-0.0627519
40.59,425.071,12.515,98.824,-0.0642857
40.64,425.571,12.511,98.791,-0.0668131
40.69,426.071,12.507,98.757,-0.0695055
40.74,426.571,12.502,98.722,-0.0718865
40.79,427.071,12.498,98.686,-0.0743862
40.84,427.571,12.493,98.648,-0.0766941
40.89,428.071,12.488,98.609,-0.0798077
40.94,428.571,12.483,98.568,-0.0824638
40.99,429.071,12.477,98.525,-0.0865385
41.04,429.571,12.472,98.478,-0.0972147
41.09,430.071,12.465,98.426,-0.1105000
41.14,430.572,12.458,98.368,-0.1185250
41.19,431.072,12.45,98.308,-0.1228040
41.24,431.572,12.442,98.244,-0.1344010
41.29,432.072,12.433,98.176,-0.1385180
41.34,432.572,12.424,98.104,-0.1480770
41.39,433.072,12.415,98.03,-0.1507780
41.44,433.572,12.405,97.954,-0.1553910
41.49,434.072,12.395,97.877,-0.1595160
41.54,434.572,12.385,97.796,-0.1651410
41.59,435.072,12.374,97.71,-0.1819010
41.64,435.572,12.363,97.619,-0.1784540
41.69,436.073,12.351,97.529,-0.1835410
41.74,436.573,12.339,97.433,-0.1921390
41.79,437.073,12.326,97.33,-0.2091930
41.84,437.573,12.313,97.223,-0.2084720
41.89,438.073,12.299,97.117,-0.2154940
41.94,438.573,12.285,97.007,-0.2263710
41.99,439.073,12.271,96.895,-0.2323420
42.04,439.573,12.256,96.776,-0.2524700
42.09,440.073,12.24,96.647,-0.2625340
42.14,440.573,12.222,96.51,-0.2871000
42.19,441.073,12.204,96.366,-0.2999080
42.24,441.573,12.184,96.205,-0.3260530
42.29,442.074,12.162,96.032,-0.3589170
42.34,442.574,12.138,95.843,-0.3925760
42.39,443.074,12.111,95.634,-0.4611680
42.44,443.574,12.081,95.394,-0.5290270
42.49,444.074,12.046,95.12,-0.5131950
42.54,444.574,12.012,94.848,-0.5753890
42.59,445.074,11.976,94.569,-0.5654700
42.64,445.574,11.942,94.295,-0.5596790
42.69,446.074,11.905,94.007,-0.6284630
42.74,446.574,11.866,93.695,-0.6059200
42.79,447.074,11.827,93.386,-0.6610530
42.84,447.575,11.785,93.056,-0.6638470
42.89,448.075,11.742,92.718,-0.6890770
42.94,448.575,11.699,92.379,-0.6242440
42.99,449.075,11.658,92.058,-0.6106860
43.04,449.575,11.622,91.768,-0.6204540
43.09,450.075,11.582,91.453,-0.6691740
43.14,450.575,11.535,91.083,-0.8242000
43.19,451.075,11.479,90.638,-0.9197340
43.24,451.575,11.421,90.185,-0.9019230
43.29,452.075,11.364,89.735,-0.8823430
43.34,452.575,11.305,89.269,-1.00457
43.39,453.076,11.239,88.748,-1.09584
43.44,453.576,11.171,88.205,-1.09662
43.49,454.076,11.104,87.678,-0.9569270
43.54,454.576,11.049,87.242,-0.9341030
43.59,455.076,10.976,86.672,-1.26679
43.64,455.576,10.895,86.033,-1.30758
43.69,456.076,10.812,85.373,-1.33998
43.74,456.576,10.721,84.654,-1.29361
43.79,457.076,10.638,84.002,-1.24529
43.84,457.576,10.552,83.323,-1.33948
43.89,458.076,10.459,82.588,-1.61825
43.94,458.577,10.359,81.794,-1.55541
43.99,459.077,10.256,80.986,-1.61215
44.04,459.577,10.148,80.13,-1.77906
44.09,460.077,10.033,79.22,-1.82216
44.14,460.577,9.912,78.267,-1.8544
44.19,461.077,9.792,77.317,-1.97056
44.24,461.577,9.667,76.336,-1.96674
44.29,462.077,9.528,75.233,-2.25609
44.34,462.577,9.389,74.142,-2.22123
44.39,463.077,9.241,72.967,-2.42933
44.44,463.577,9.092,71.792,-2.29656
44.49,464.078,8.938,70.576,-2.53103
44.54,464.578,8.779,69.319,-2.51436
44.59,465.078,8.616,68.03,-2.7505
44.64,465.578,8.437,66.623,-2.81169
44.69,466.078,8.263,65.245,-2.81754
44.74,466.578,8.077,63.778,-3.09329
44.79,467.078,7.877,62.199,-3.22668
44.84,467.578,7.68,60.643,-3.19156
44.89,468.078,7.485,59.101,-3.07975
44.94,468.578,7.267,57.382,-3.45589
44.99,469.078,7.047,55.644,-3.60158
45.04,469.578,6.822,53.865,-3.55504
45.09,470.079,6.596,52.084,-3.66183
45.14,470.579,6.369,50.29,-3.92611
45.19,471.079,6.119,48.316,-3.82751
45.24,471.579,5.881,46.436,-3.82051
45.29,472.079,5.63,44.454,-4.03398
45.34,472.579,5.387,42.535,-4.02571
45.39,473.079,5.118,40.413,-3.93737
45.44,473.579,4.87,38.457,-4.2309
45.49,474.079,4.6,36.326,-4.11466
45.54,474.579,4.328,34.176,-4.24538
45.59,475.079,4.066,32.109,-4.03476
45.64,475.58,3.803,30.032,-4.42009
45.69,476.08,3.54,27.953,-4.10315
45.74,476.58,3.277,25.877,-3.92832
45.79,477.08,3.027,23.905,-4.37565
45.84,477.58,2.758,21.781,-3.83412
45.89,478.08,2.511,19.827,-3.89617
45.94,478.58,2.26,17.844,-3.83884
45.99,479.08,2.02,15.952,-3.76525
46.04,479.58,1.789,14.124,-3.46403
46.09,480.08,1.568,12.382,-3.4061
46.14,480.58,1.355,10.701,-3.25171
46.19,481.081,1.159,9.15,-3.09857
46.24,481.581,0.9710000,7.664,-2.8387
46.29,482.081,0.7980000,6.305,-2.53357
46.34,482.581,0.6440000,5.085,-2.2828
46.39,483.081,0.5070000,4.005,-2.01004
46.44,483.581,0.3930000,3.105,-1.69634
46.49,484.081,0.2950000,2.327,-1.38666
46.53,484.581,0.2180000,1.717,-1.11912
46.58,485.081,0.1550000,1.224,-0.8540750
46.63,485.581,0.1090000,0.8630000,-0.6086860
46.68,486.081,0.0780000,0.6140000,-0.4118680
46.73,486.582,0.0560000,0.4430000,-0.2693160
46.78,487.082,0.0430000,0.3380000,-0.1549090
46.83,487.582,0.0360000,0.2810000,-0.0773241
46.88,488.082,0.0320000,0.2540000,-0.0366579
46.93,488.582,0.0300000,0.2360000,-0.0367742
46.98,489.082,0.0270000,0.2170000,-0.0338474
47.03,489.582,0.0260000,0.2010000,-0.0286463
47.08,490.082,0.0240000,0.1890000,-0.0233532
47.13,490.582,0.0230000,0.1780000,-0.0184069
47.18,491.082,0.0220000,0.1700000,-0.0142158
47.23,491.582,0.0210000,0.1640000,-0.0113092
47.28,492.083,0.0200000,0.1590000,-0.0085984
47.34,492.583,0.0200000,0.1550000,-0.0067465
47.39,493.083,0.0190000,0.1520000,-0.0052034
47.44,493.583,0.0190000,0.1490000,-0.0041975
47.49,494.083,0.0190000,0.1480000,-0.0030917
47.54,494.583,0.0190000,0.1460000,-0.0022911
47.59,495.083,0.0180000,0.1450000,-0.0012809
47.64,495.583,0.0180000,0.1450000,-0.0010833
47.69,496.083,0.0180000,0.1440000,-0.0011174
47.74,496.583,0.0180000,0.1440000,-0.0008444
47.79,497.083,0.0180000,0.1430000,-0.0005673
47.84,497.583,0.0180000,0.1430000,-0.0004780
47.89,498.084,0.0180000,0.1430000,-0.0003287
47.94,498.584,0.0180000,0.1430000,-0.0002683
47.99,499.084,0.0180000,0.1430000,-0.0002044
48.04,499.584,0.0180000,0.1430000,-0.0001748
48.09,500.084,0.0180000,0.1430000,-0.0003432
48.14,500.584,0.0180000,0.1430000,-0.0000224
48.19,501.084,0.0180000,0.1420000,-0.0002239
48.24,501.584,0.0180000,0.1420000,-0.0000757
48.29,502.084,0.0180000,0.1420000,0.0000909
48.34,502.584,0.0180000,0.1420000,0.0002427
48.39,503.084,0.0180000,0.1420000,0.0001061
48.44,503.585,0.0180000,0.1430000,0.0005521
48.49,504.085,0.0180000,0.1430000,0.0003302
48.54,504.585,0.0180000,0.1430000,0.0001148
48.58,505.085,0.0180000,0.1430000,0.0004549
48.63,505.585,0.0180000,0.1430000,0.0003359
48.69,506.085,0.0180000,0.1430000,0.0001683
48.74,506.585,0.0180000,0.1430000,0.0004113
48.79,507.085,0.0180000,0.1430000,0.0003127
48.84,507.585,0.0180000,0.1430000,-0.0001229
48.89,508.085,0.0180000,0.1430000,-0.0000244
48.94,508.585,0.0180000,0.1430000,-0.0000370
48.99,509.086,0.0180000,0.1430000,0.0002422
49.04,509.586,0.0180000,0.1430000,0.0001995
49.09,510.086,0.0180000,0.1430000,0.0001660
49.14,510.586,0.0180000,0.1430000,-0.0002220
49.19,511.086,0.0180000,0.1430000,0.0000408
49.24,511.586,0.0180000,0.1430000,0.0004493
49.29,512.086,0.0180000,0.1430000,0.0001545
49.34,512.586,0.0180000,0.1430000,0.0002850
49.39,513.086,0.0180000,0.1430000,0.0003083
49.44,513.586,0.0180000,0.1430000,-0.0000593
49.49,514.086,0.0180000,0.1430000,0.0003584
49.54,514.587,0.0180000,0.1440000,-0.0000383
49.59,515.087,0.0180000,0.1440000,0.0001772
49.64,515.587,0.0180000,0.1440000,0.0003511
49.69,516.087,0.0180000,0.1440000,0.0000106
49.73,516.587,0.0180000,0.1440000,-0.0001698
49.78,517.087,0.0180000,0.1440000,0.0000401
49.83,517.587,0.0180000,0.1440000,0.0000341
49.88,518.087,0.0180000,0.1440000,-0.0002979
49.94,518.587,0.0180000,0.1440000,0.0001037
49.99,519.087,0.0180000,0.1440000,-0.0000343
50.04,519.587,0.0180000,0.1440000,0.0000983
50.08,520.088,0.0180000,0.1440000,-0.0001360
50.13,520.588,0.0180000,0.1440000,-0.0000515
50.18,521.088,0.0180000,0.1440000,-0.0002157
50.23,521.588,0.0180000,0.1440000,-0.0001917
50.28,522.088,0.0180000,0.1440000,0.0000880
50.33,522.588,0.0180000,0.1440000,-0.0001490
50.38,523.088,0.0180000,0.1440000,-0.0000108
50.43,523.588,0.0180000,0.1440000,-0.0002356
50.48,524.088,0.0180000,0.1440000,0.0001649
50.53,524.588,0.0180000,0.1440000,-0.0000053
50.58,525.088,0.0180000,0.1440000,0.0000172
50.63,525.588,0.0180000,0.1440000,-0.0000621
50.68,526.089,0.0180000,0.1440000,-0.0001135
50.73,526.589,0.0180000,0.1440000,-0.0000984
50.78,527.089,0.0180000,0.1440000,-0.0004165
50.83,527.589,0.0180000,0.1440000,-0.0001365
50.88,528.089,0.0180000,0.1440000,-0.0000439
50.93,528.589,0.0180000,0.1440000,0.0002879
50.98,529.089,0.0180000,0.1440000,0.0003953
51.03,529.589,0.0180000,0.1440000,0.0000901
51.08,530.089,0.0180000,0.1440000,0.0001278
51.13,530.589,0.0180000,0.1440000,0.0000129
51.18,531.089,0.0180000,0.1440000,-0.0001570
51.23,531.59,0.0180000,0.1440000,0.0000987
51.28,532.09,0.0180000,0.1440000,-0.0001612
51.33,532.59,0.0180000,0.1440000,0.0002183
51.38,533.09,0.0180000,0.1440000,0.0000232
51.43,533.59,0.0180000,0.1440000,0.0000608
51.48,534.09,0.0180000,0.1440000,0.0001802
51.53,534.59,0.0180000,0.1440000,0.0003602
51.58,535.09,0.0180000,0.1440000,-0.0000131
51.63,535.59,0.0180000,0.1440000,0.0003499
51.68,536.09,0.0180000,0.1440000,-0.0005570
51.73,536.59,0.0180000,0.1440000,-0.0001800
51.78,537.091,0.0180000,0.1440000,-0.0000244
51.83,537.591,0.0180000,0.1440000,-0.0003201
51.88,538.091,0.0180000,0.1440000,-0.0003800
51.93,538.591,0.0180000,0.1440000,-0.0003641
51.98,539.091,0.0180000,0.1440000,0.0001096
52.03,539.591,0.0180000,0.1440000,-0.0001470
52.08,540.091,0.0180000,0.1440000,0.0003619
52.13,540.591,0.0180000,0.1440000,-0.0000174
52.18,541.091,0.0180000,0.1440000,0.0001940
52.23,541.591,0.0180000,0.1440000,0.0001715
52.28,542.091,0.0180000,0.1440000,0.0002542
52.33,542.592,0.0180000,0.1440000,0.0000738
52.38,543.092,0.0180000,0.1440000,0.0000893
52.43,543.592,0.0180000,0.1440000,0.0001872
52.48,544.092,0.0180000,0.1440000,0.0000046
52.53,544.592,0.0180000,0.1440000,0.0001152
52.58,545.092,0.0180000,0.1440000,-0.0001440
52.63,545.592,0.0180000,0.1440000,-0.0002256
52.68,546.092,0.0180000,0.1440000,-0.0000771
52.73,546.592,0.0180000,0.1440000,0.0000048
52.78,547.092,0.0180000,0.1440000,-0.0001081
52.83,547.592,0.0180000,0.1440000,-0.0004024
52.88,548.093,0.0180000,0.1440000,-0.0002787
52.93,548.593,0.0180000,0.1430000,0.0000546
52.98,549.093,0.0180000,0.1430000,0.0000211
53.03,549.593,0.0180000,0.1430000,0.0000649
53.08,550.093,0.0180000,0.1440000,-0.0001056
53.13,550.593,0.0180000,0.1440000,0.0002832
53.18,551.093,0.0180000,0.1440000,0.0001897
53.23,551.593,0.0180000,0.1440000,0.0002608
53.28,552.093,0.0180000,0.1440000,0.0000184
53.33,552.593,0.0180000,0.1440000,-0.0000691
53.38,553.093,0.0180000,0.1430000,-0.0001923
53.43,553.593,0.0180000,0.1430000,-0.0000181
53.48,554.094,0.0180000,0.1430000,-0.0000133
53.53,554.594,0.0180000,0.1430000,-0.0004296
53.58,555.094,0.0180000,0.1430000,0.0000439
53.63,555.594,0.0180000,0.1430000,-0.0000878
53.68,556.094,0.0180000,0.1430000,-0.0001025
53.73,556.594,0.0180000,0.1430000,-0.0001436
53.78,557.094,0.0180000,0.1430000,-0.0002514
53.83,557.594,0.0180000,0.1430000,0.0003257
53.88,558.094,0.0180000,0.1430000,0.0001600
53.93,558.594,0.0180000,0.1430000,0.0000273
53.98,559.094,0.0180000,0.1430000,0.0002951
54.03,559.595,0.0180000,0.1430000,0.0000979
54.08,560.095,0.0180000,0.1430000,0.0000233
54.13,560.595,0.0180000,0.1430000,0.0000187
54.18,561.095,0.0180000,0.1430000,-0.0004055
54.23,561.595,0.0180000,0.1430000,-0.0001466
54.28,562.095,0.0180000,0.1430000,-0.0000049
54.33,562.595,0.0180000,0.1430000,-0.0004236
54.38,563.095,0.0180000,0.1430000,-0.0001515
54.43,563.595,0.0180000,0.1430000,0.0001469
54.48,564.095,0.0180000,0.1430000,-0.0001185
54.53,564.595,0.0180000,0.1430000,-0.0000311
54.58,565.096,0.0180000,0.1430000,0.0001150
54.63,565.596,0.0180000,0.1430000,0.0001707
54.68,566.096,0.0180000,0.1430000,-0.0001591
54.73,566.596,0.0180000,0.1430000,-0.0000424
54.78,567.096,0.0180000,0.1430000,-0.0001469
54.83,567.596,0.0180000,0.1430000,0.0001675
54.88,568.096,0.0180000,0.1430000,0.0004528
54.93,568.596,0.0180000,0.1430000,0.0000624
54.98,569.096,0.0180000,0.1430000,-0.0000677
55.03,569.596,0.0180000,0.1430000,-0.0000960
55.08,570.096,0.0180000,0.1430000,0.0000112
55.13,570.597,0.0180000,0.1430000,0.0000381
55.18,571.097,0.0180000,0.1430000,-0.0005428
55.23,571.597,0.0180000,0.1430000,-0.0000728
55.28,572.097,0.0180000,0.1420000,-0.0004664
55.33,572.597,0.0180000,0.1420000,0.0000641
55.38,573.097,0.0180000,0.1420000,0.0000623
55.43,573.597,0.0180000,0.1420000,-0.0004262
55.48,574.097,0.0180000,0.1420000,0.0000576
55.53,574.597,0.0180000,0.1420000,-0.0000235
55.58,575.097,0.0180000,0.1420000,-0.0001631
55.63,575.597,0.0180000,0.1420000,-0.0000888
55.68,576.098,0.0180000,0.1420000,-0.0003497
55.73,576.598,0.0180000,0.1420000,-0.0002850
55.78,577.098,0.0180000,0.1420000,-0.0001037
55.83,577.598,0.0180000,0.1420000,0.0000183
55.88,578.098,0.0180000,0.1420000,0.0000678
55.93,578.598,0.0180000,0.1420000,0.0000808
55.98,579.098,0.0180000,0.1420000,0.0002738
56.03,579.598,0.0180000,0.1420000,0.0002972
56.08,580.098,0.0180000,0.1420000,-0.0001259
56.13,580.598,0.0180000,0.1420000,-0.0001205
56.18,581.098,0.0180000,0.1420000,-0.0002327
56.23,581.598,0.0180000,0.1420000,-0.0001007
56.28,582.099,0.0180000,0.1420000,-0.0002772
56.33,582.599,0.0180000,0.1420000,0.0001533
56.38,583.099,0.0180000,0.1420000,0.0001049
56.43,583.599,0.0180000,0.1420000,-0.0000286
56.48,584.099,0.0180000,0.1420000,0.0000549
56.53,584.599,0.0180000,0.1420000,0.0002671
56.58,585.099,0.0180000,0.1420000,0.0001992
56.63,585.599,0.0180000,0.1420000,0.0000905
56.68,586.099,0.0180000,0.1420000,-0.0000539
56.73,586.599,0.0180000,0.1420000,-0.0000375
56.78,587.099,0.0180000,0.1420000,-0.0000684
56.83,587.6,0.0180000,0.1420000,0.0000779
56.88,588.1,0.0180000,0.1420000,0.0002496
56.93,588.6,0.0180000,0.1420000,-0.0001030
56.98,589.1,0.0180000,0.1420000,0.0004573
57.03,589.6,0.0180000,0.1420000,0.0005100
57.07,590,0.0180000,0.1420000,0.0003804