File: R/rHDPE_App/app/www/Output/TGA/Condensed_Data/Resin18_0_.csv
0.0000000,30,16.11,100,-0.0303137
0.0900000,30.5001,16.11,99.998,-0.0102962
0.2400000,31.0002,16.11,99.997,0.0180468
0.4000000,31.5003,16.11,99.999,0.0008656
0.5100000,32.0004,16.111,100.004,0.0181516
0.6000000,32.5004,16.112,100.008,0.0075521
0.6800000,33.0005,16.112,100.011,0.0087095
0.7600000,33.5006,16.113,100.014,0.0100851
0.8300000,34.0007,16.113,100.016,0.0025955
0.8900000,34.5008,16.113,100.018,0.0042327
0.9500000,35.0009,16.113,100.02,0.0063000
1.01,35.501,16.114,100.021,0.0043458
1.07,36.0011,16.114,100.023,0.0019474
1.13,36.5012,16.114,100.024,0.0006401
1.19,37.0013,16.114,100.025,0.0037980
1.24,37.5013,16.114,100.026,0.0030307
1.3,38.0014,16.115,100.027,0.0001037
1.36,38.5015,16.115,100.028,0.0034979
1.42,39.0016,16.115,100.029,0.0005107
1.47,39.5017,16.115,100.03,0.0035003
1.53,40.0018,16.115,100.03,0.0008576
1.58,40.5019,16.115,100.031,0.0023076
1.63,41.002,16.115,100.032,-0.0000499
1.69,41.5021,16.116,100.033,0.0034269
1.74,42.0021,16.116,100.033,0.0002968
1.8,42.5022,16.116,100.034,0.0025629
1.85,43.0023,16.116,100.035,0.0019165
1.91,43.5024,16.116,100.036,0.0001960
1.96,44.0025,16.116,100.036,0.0021990
2.01,44.5026,16.116,100.037,0.0016568
2.07,45.0027,16.116,100.037,0.0006807
2.12,45.5028,16.116,100.038,0.0016485
2.17,46.0029,16.117,100.039,0.0020804
2.22,46.5029,16.117,100.04,0.0004827
2.28,47.003,16.117,100.04,0.0018306
2.33,47.5031,16.117,100.041,0.0018745
2.38,48.0032,16.117,100.042,0.0009601
2.43,48.5033,16.117,100.042,0.0003833
2.49,49.0034,16.117,100.043,0.0014350
2.54,49.5035,16.117,100.043,0.0016722
2.59,50.0036,16.117,100.044,0.0015275
2.64,50.5037,16.117,100.045,0.0006199
2.69,51.0038,16.118,100.045,0.0010479
2.75,51.5038,16.118,100.046,0.0018078
2.8,52.0039,16.118,100.046,0.0011405
2.85,52.504,16.118,100.047,0.0006644
2.9,53.0041,16.118,100.048,0.0011374
2.95,53.5042,16.118,100.048,0.0017515
3.01,54.0043,16.118,100.049,0.0020799
3.06,54.5044,16.118,100.049,0.0009917
3.11,55.0045,16.118,100.05,0.0015094
3.16,55.5046,16.118,100.051,0.0008952
3.21,56.0046,16.119,100.051,0.0009878
3.26,56.5047,16.119,100.052,0.0015031
3.31,57.0048,16.119,100.052,0.0010790
3.36,57.5049,16.119,100.053,0.0010312
3.42,58.005,16.119,100.053,0.0007023
3.47,58.5051,16.119,100.054,0.0013092
3.52,59.0052,16.119,100.054,0.0014488
3.57,59.5053,16.119,100.055,0.0011208
3.62,60.0054,16.119,100.056,0.0011666
3.67,60.5054,16.119,100.056,0.0013989
3.72,61.0055,16.119,100.057,0.0011186
3.77,61.5056,16.12,100.057,0.0006988
3.83,62.0057,16.12,100.058,0.0008843
3.88,62.5058,16.12,100.058,0.0013021
3.93,63.0059,16.12,100.059,0.0008826
3.98,63.506,16.12,100.059,0.0012996
4.03,64.0061,16.12,100.06,0.0008350
4.08,64.5062,16.12,100.06,0.0006952
4.13,65.0063,16.12,100.061,0.0005560
4.18,65.5063,16.12,100.061,0.0008800
4.23,66.0064,16.12,100.062,0.0006014
4.28,66.5065,16.12,100.062,0.0008784
4.33,67.0066,16.12,100.063,0.0011091
4.38,67.5067,16.12,100.063,0.0010160
4.43,68.0068,16.121,100.064,0.0010616
4.48,68.5069,16.121,100.064,0.0006918
4.53,69.007,16.121,100.065,0.0009220
4.58,69.5071,16.121,100.065,0.0005068
4.63,70.0071,16.121,100.065,0.0005527
4.68,70.5072,16.121,100.066,0.0004606
4.73,71.0073,16.121,100.066,0.0005524
4.78,71.5074,16.121,100.066,0.0005523
4.84,72.0075,16.121,100.067,0.0006444
4.89,72.5076,16.121,100.067,0.0011040
4.94,73.0077,16.121,100.068,0.0006897
4.99,73.5078,16.121,100.068,0.0007356
5.04,74.0079,16.121,100.068,0.0006895
5.09,74.5079,16.121,100.069,0.0008728
5.14,75.008,16.121,100.069,0.0007810
5.19,75.5081,16.121,100.069,0.0004592
5.24,76.0082,16.122,100.07,0.0003672
5.29,76.5083,16.122,100.07,0.0005967
5.34,77.0084,16.122,100.07,0.0002753
5.39,77.5085,16.122,100.071,0.0006884
5.44,78.0086,16.122,100.071,0.0005504
5.49,78.5087,16.122,100.071,0.0005046
5.54,79.0088,16.122,100.072,0.0008258
5.59,79.5088,16.122,100.072,0.0004586
5.64,80.0089,16.122,100.073,0.0007795
5.69,80.509,16.122,100.073,0.0007793
5.74,81.0091,16.122,100.073,0.0005960
5.79,81.5092,16.122,100.074,0.0005959
5.84,82.0093,16.122,100.074,0.0003667
5.89,82.5094,16.122,100.074,0.0005041
5.94,83.0095,16.122,100.074,0.0003665
5.99,83.5096,16.122,100.075,0.0010535
6.04,84.0096,16.122,100.075,0.0005042
6.09,84.5097,16.122,100.075,0.0000000
6.14,85.0098,16.122,100.075,0.0009161
6.19,85.5099,16.123,100.076,0.0006412
6.24,86.01,16.123,100.076,0.0006410
6.29,86.5101,16.123,100.076,0.0010073
6.34,87.0102,16.123,100.077,0.0006410
6.39,87.5103,16.123,100.077,0.0006868
6.44,88.0104,16.123,100.077,0.0006870
6.49,88.5104,16.123,100.077,0.0005038
6.54,89.0105,16.123,100.077,0.0005036
6.59,89.5106,16.123,100.078,-0.0000000
6.64,90.0107,16.123,100.078,0.0005036
6.69,90.5108,16.123,100.078,0.0003664
6.74,91.0109,16.123,100.078,0.0003664
6.79,91.511,16.123,100.078,0.0004578
6.84,92.0111,16.123,100.079,0.0005034
6.89,92.5112,16.123,100.079,0.0002747
6.94,93.0113,16.123,100.079,0.0002290
6.99,93.5113,16.123,100.079,0.0002747
7.04,94.0114,16.123,100.079,0.0005950
7.09,94.5115,16.123,100.08,0.0001373
7.14,95.0116,16.123,100.08,0.0007779
7.19,95.5117,16.123,100.08,0.0003203
7.24,96.0118,16.123,100.08,0.0003203
7.29,96.5119,16.123,100.08,0.0000915
7.34,97.012,16.123,100.08,-0.0001831
7.39,97.5121,16.123,100.08,0.0004577
7.44,98.0121,16.123,100.08,0.0003661
7.49,98.5122,16.123,100.081,0.0002288
7.54,99.0123,16.123,100.081,0.0001373
7.59,99.5124,16.123,100.081,0.0004118
7.64,100.013,16.123,100.081,0.0002746
7.69,100.513,16.123,100.081,0.0004118
7.74,101.013,16.123,100.081,0.0003663
7.79,101.513,16.123,100.081,0.0005034
7.84,102.013,16.123,100.082,0.0006406
7.89,102.513,16.123,100.082,0.0005034
7.94,103.013,16.123,100.082,-0.0000457
7.99,103.513,16.123,100.082,0.0000000
8.04,104.013,16.123,100.082,0.0000915
8.09,104.513,16.123,100.082,0.0000000
8.14,105.013,16.124,100.082,0.0000000
8.19,105.513,16.124,100.082,-0.0000916
8.24,106.014,16.124,100.082,-0.0003664
8.29,106.514,16.124,100.082,-0.0001832
8.34,107.014,16.124,100.082,-0.0001831
8.39,107.514,16.123,100.082,-0.0003663
8.44,108.014,16.123,100.082,0.0000458
8.49,108.514,16.123,100.082,0.0001832
8.54,109.014,16.124,100.082,0.0002748
8.59,109.514,16.124,100.082,0.0001373
8.64,110.014,16.124,100.082,0.0004121
8.69,110.514,16.124,100.082,0.0003205
8.74,111.014,16.124,100.082,-0.0002747
8.79,111.515,16.123,100.082,-0.0002746
8.84,112.015,16.123,100.082,0.0000000
8.89,112.515,16.124,100.082,-0.0002289
8.94,113.015,16.123,100.082,-0.0002289
8.99,113.515,16.123,100.082,-0.0004119
9.04,114.015,16.123,100.082,-0.0001373
9.09,114.515,16.123,100.082,0.0000000
9.14,115.015,16.123,100.082,-0.0001831
9.19,115.515,16.123,100.082,0.0003663
9.24,116.015,16.124,100.082,-0.0001374
9.29,116.515,16.123,100.082,-0.0000000
9.34,117.016,16.123,100.082,0.0003207
9.39,117.516,16.123,100.082,0.0000000
9.44,118.016,16.123,100.082,-0.0002749
9.49,118.516,16.123,100.082,-0.0000917
9.54,119.016,16.123,100.082,0.0001375
9.59,119.516,16.123,100.082,0.0000458
9.64,120.016,16.123,100.082,0.0001376
9.69,120.516,16.123,100.082,-0.0000917
9.74,121.016,16.123,100.082,0.0001834
9.79,121.516,16.123,100.082,0.0001375
9.84,122.016,16.123,100.082,-0.0003668
9.89,122.517,16.123,100.082,0.0001376
9.94,123.017,16.123,100.082,0.0000000
9.99,123.517,16.123,100.081,-0.0001375
10.04,124.017,16.123,100.081,0.0004126
10.09,124.517,16.123,100.082,0.0004126
10.14,125.017,16.123,100.082,0.0000000
10.19,125.517,16.123,100.082,-0.0000000
10.24,126.017,16.123,100.082,0.0003669
10.29,126.517,16.123,100.082,0.0002751
10.34,127.017,16.123,100.082,0.0000000
10.39,127.517,16.123,100.082,0.0003212
10.44,128.018,16.123,100.082,-0.0000918
10.49,128.518,16.123,100.082,0.0000000
10.54,129.018,16.123,100.082,0.0003674
10.59,129.518,16.124,100.082,0.0005971
10.64,130.018,16.124,100.082,0.0000000
10.69,130.518,16.124,100.082,0.0003214
10.74,131.018,16.124,100.082,0.0000918
10.79,131.518,16.124,100.082,0.0001835
10.84,132.018,16.124,100.082,0.0001376
10.89,132.518,16.124,100.082,-0.0005043
10.94,133.018,16.123,100.082,-0.0001375
10.99,133.518,16.123,100.082,-0.0001832
11.04,134.019,16.123,100.082,-0.0003203
11.09,134.519,16.123,100.082,-0.0003203
11.14,135.019,16.123,100.081,-0.0003202
11.19,135.519,16.123,100.081,-0.0000000
11.24,136.019,16.123,100.081,-0.0003656
11.29,136.519,16.123,100.081,-0.0003198
11.34,137.019,16.123,100.08,-0.0007764
11.39,137.519,16.123,100.08,-0.0007306
11.44,138.019,16.123,100.08,-0.0003195
11.49,138.519,16.123,100.079,-0.0009130
11.54,139.019,16.123,100.079,-0.0010954
11.59,139.52,16.123,100.079,-0.0012772
11.64,140.02,16.123,100.078,-0.0006386
11.69,140.52,16.123,100.078,-0.0009574
11.74,141.02,16.123,100.077,-0.0010481
11.79,141.52,16.123,100.076,-0.0010018
11.84,142.02,16.123,100.076,-0.0009099
11.89,142.52,16.122,100.075,-0.0024091
11.94,143.02,16.122,100.074,-0.0021337
11.99,143.52,16.122,100.073,-0.0025862
12.04,144.02,16.122,100.072,-0.0019951
12.09,144.52,16.122,100.071,-0.0020862
12.14,145.021,16.122,100.069,-0.0021331
12.19,145.521,16.121,100.068,-0.0020890
12.24,146.021,16.121,100.067,-0.0023175
12.29,146.521,16.121,100.066,-0.0021383
12.34,147.021,16.121,100.065,-0.0020501
12.39,147.521,16.121,100.064,-0.0015973
12.44,148.021,16.121,100.063,-0.0021475
12.49,148.521,16.12,100.062,-0.0019680
12.54,149.021,16.12,100.061,-0.0014668
12.59,149.521,16.12,100.061,-0.0013765
12.64,150.021,16.12,100.06,-0.0015163
12.69,150.522,16.12,100.059,-0.0014257
12.74,151.022,16.12,100.058,-0.0016107
12.79,151.522,16.12,100.057,-0.0015198
12.84,152.022,16.119,100.057,-0.0013808
12.89,152.522,16.119,100.056,-0.0013821
12.94,153.022,16.119,100.055,-0.0017051
12.99,153.522,16.119,100.055,-0.0013360
13.04,154.022,16.119,100.054,-0.0010592
13.09,154.522,16.119,100.053,-0.0014263
13.14,155.022,16.119,100.053,-0.0007366
13.19,155.522,16.119,100.052,-0.0009666
13.24,156.023,16.119,100.051,-0.0011963
13.29,156.523,16.118,100.051,-0.0011960
13.34,157.023,16.118,100.05,-0.0013796
13.39,157.523,16.118,100.05,-0.0012419
13.44,158.023,16.118,100.049,-0.0008280
13.49,158.523,16.118,100.049,-0.0014253
13.54,159.023,16.118,100.048,-0.0013781
13.59,159.523,16.118,100.047,-0.0012865
13.64,160.023,16.118,100.047,-0.0012401
13.69,160.523,16.118,100.046,-0.0010560
13.74,161.023,16.118,100.046,-0.0007805
13.79,161.523,16.118,100.045,-0.0008263
13.84,162.024,16.117,100.045,-0.0010099
13.89,162.524,16.117,100.044,-0.0009633
13.94,163.024,16.117,100.043,-0.0017890
13.99,163.524,16.117,100.042,-0.0011927
14.04,164.024,16.117,100.042,-0.0013756
14.09,164.524,16.117,100.041,-0.0007794
14.14,165.024,16.117,100.041,-0.0008710
14.19,165.524,16.117,100.04,-0.0013291
14.24,166.024,16.117,100.039,-0.0013743
14.29,166.524,16.117,100.039,-0.0016486
14.34,167.024,16.116,100.038,-0.0010989
14.39,167.525,16.116,100.038,-0.0010991
14.44,168.025,16.116,100.037,-0.0014656
14.49,168.525,16.116,100.036,-0.0010531
14.54,169.025,16.116,100.035,-0.0014659
14.59,169.525,16.116,100.035,-0.0016946
14.64,170.025,16.116,100.034,-0.0013281
14.69,170.525,16.116,100.033,-0.0015117
14.74,171.025,16.116,100.033,-0.0013749
14.79,171.525,16.115,100.032,-0.0013748
14.84,172.025,16.115,100.031,-0.0011915
14.89,172.525,16.115,100.03,-0.0010541
14.94,173.026,16.115,100.03,-0.0009166
14.99,173.526,16.115,100.029,-0.0016960
15.04,174.026,16.115,100.028,-0.0012376
15.09,174.526,16.115,100.027,-0.0015129
15.14,175.026,16.115,100.027,-0.0020619
15.19,175.526,16.114,100.026,-0.0013747
15.24,176.026,16.114,100.025,-0.0017412
15.29,176.526,16.114,100.024,-0.0014659
15.34,177.026,16.114,100.024,-0.0012374
15.39,177.526,16.114,100.023,-0.0015582
15.44,178.026,16.114,100.022,-0.0013291
15.49,178.527,16.114,100.021,-0.0015120
15.54,179.027,16.114,100.021,-0.0015578
15.59,179.527,16.114,100.02,-0.0013291
15.64,180.027,16.113,100.019,-0.0016033
15.69,180.527,16.113,100.018,-0.0016952
15.74,181.027,16.113,100.018,-0.0018323
15.79,181.527,16.113,100.017,-0.0018785
15.85,182.027,16.113,100.016,-0.0016949
15.9,182.527,16.113,100.015,-0.0018786
15.95,183.027,16.113,100.014,-0.0018329
16,183.527,16.113,100.014,-0.0016952
16.05,184.028,16.112,100.013,-0.0018781
16.1,184.528,16.112,100.012,-0.0012374
16.15,185.028,16.112,100.011,-0.0014201
16.2,185.528,16.112,100.01,-0.0012826
16.25,186.028,16.112,100.01,-0.0018785
16.3,186.528,16.112,100.009,-0.0016488
16.35,187.028,16.112,100.008,-0.0017409
16.4,187.528,16.111,100.007,-0.0017857
16.45,188.028,16.111,100.007,-0.0018773
16.5,188.528,16.111,100.006,-0.0010989
16.55,189.028,16.111,100.005,-0.0018323
16.6,189.528,16.111,100.004,-0.0012370
16.65,190.029,16.111,100.003,-0.0017864
16.7,190.529,16.111,100.002,-0.0018782
16.75,191.029,16.111,100.001,-0.0017860
16.8,191.529,16.11,100,-0.0018324
16.85,192.029,16.11,100,-0.0021534
16.9,192.529,16.11,99.999,-0.0021534
16.95,193.029,16.11,99.998,-0.0019703
17,193.529,16.11,99.997,-0.0017412
17.05,194.029,16.11,99.996,-0.0015577
17.09,194.529,16.109,99.995,-0.0018323
17.14,195.029,16.109,99.994,-0.0021540
17.19,195.53,16.109,99.993,-0.0018786
17.24,196.03,16.109,99.992,-0.0019245
17.29,196.53,16.109,99.991,-0.0017410
17.34,197.03,16.109,99.99,-0.0019698
17.39,197.53,16.109,99.989,-0.0021086
17.45,198.03,16.108,99.988,-0.0021993
17.5,198.53,16.108,99.987,-0.0015118
17.55,199.03,16.108,99.986,-0.0016946
17.6,199.53,16.108,99.985,-0.0017863
17.65,200.03,16.108,99.984,-0.0023352
17.7,200.53,16.108,99.983,-0.0023362
17.75,201.031,16.107,99.982,-0.0021988
17.8,201.531,16.107,99.981,-0.0016491
17.85,202.031,16.107,99.98,-0.0019694
17.9,202.531,16.107,99.979,-0.0021994
17.95,203.031,16.107,99.978,-0.0017865
18,203.531,16.107,99.977,-0.0016499
18.05,204.031,16.107,99.976,-0.0015572
18.1,204.531,16.106,99.976,-0.0020623
18.15,205.031,16.106,99.975,-0.0019239
18.2,205.531,16.106,99.974,-0.0021994
18.25,206.031,16.106,99.973,-0.0021540
18.3,206.532,16.106,99.972,-0.0021530
18.35,207.032,16.106,99.97,-0.0019701
18.4,207.532,16.105,99.97,-0.0018327
18.45,208.032,16.105,99.969,-0.0021542
18.5,208.532,16.105,99.967,-0.0017415
18.55,209.032,16.105,99.966,-0.0019705
18.6,209.532,16.105,99.966,-0.0019694
18.65,210.032,16.105,99.965,-0.0023367
18.7,210.532,16.104,99.964,-0.0019698
18.75,211.032,16.104,99.962,-0.0017404
18.8,211.532,16.104,99.961,-0.0016944
18.85,212.033,16.104,99.96,-0.0017408
18.9,212.533,16.104,99.959,-0.0021532
18.95,213.033,16.104,99.958,-0.0024285
19,213.533,16.103,99.957,-0.0025183
19.05,214.033,16.103,99.956,-0.0020151
19.1,214.533,16.103,99.955,-0.0019236
19.15,215.033,16.103,99.954,-0.0014655
19.2,215.533,16.103,99.953,-0.0025185
19.25,216.033,16.103,99.952,-0.0024258
19.3,216.533,16.102,99.951,-0.0021526
19.35,217.033,16.102,99.95,-0.0021992
19.4,217.533,16.102,99.949,-0.0027498
19.45,218.034,16.102,99.948,-0.0022459
19.5,218.534,16.102,99.946,-0.0017882
19.55,219.034,16.102,99.945,-0.0021093
19.6,219.534,16.101,99.944,-0.0022012
19.65,220.034,16.101,99.943,-0.0019723
19.7,220.534,16.101,99.942,-0.0021097
19.75,221.034,16.101,99.941,-0.0018343
19.8,221.534,16.101,99.94,-0.0024768
19.85,222.034,16.1,99.939,-0.0023848
19.9,222.534,16.1,99.938,-0.0021550
19.95,223.034,16.1,99.937,-0.0020178
20,223.535,16.1,99.936,-0.0017423
20.05,224.035,16.1,99.935,-0.0023845
20.1,224.535,16.1,99.933,-0.0023373
20.15,225.035,16.099,99.932,-0.0021540
20.2,225.535,16.099,99.931,-0.0023848
20.25,226.035,16.099,99.93,-0.0019248
20.3,226.535,16.099,99.929,-0.0021526
20.35,227.035,16.099,99.928,-0.0022448
20.4,227.535,16.098,99.927,-0.0022450
20.45,228.035,16.098,99.925,-0.0024743
20.5,228.535,16.098,99.924,-0.0021988
20.55,229.036,16.098,99.923,-0.0023361
20.6,229.536,16.098,99.922,-0.0022450
20.65,230.036,16.098,99.921,-0.0018792
20.7,230.536,16.097,99.92,-0.0015586
20.75,231.036,16.097,99.919,-0.0016962
20.8,231.536,16.097,99.918,-0.0019714
20.85,232.036,16.097,99.917,-0.0022461
20.9,232.536,16.097,99.916,-0.0021992
20.95,233.036,16.097,99.914,-0.0023827
21,233.536,16.096,99.913,-0.0023362
21.05,234.036,16.096,99.912,-0.0020142
21.1,234.537,16.096,99.911,-0.0021526
21.15,235.037,16.096,99.91,-0.0024274
21.2,235.537,16.096,99.908,-0.0022450
21.25,236.037,16.095,99.907,-0.0027039
21.3,236.537,16.095,99.906,-0.0023831
21.35,237.037,16.095,99.905,-0.0022915
21.4,237.537,16.095,99.903,-0.0020165
21.45,238.037,16.095,99.902,-0.0027956
21.5,238.537,16.094,99.901,-0.0026574
21.55,239.037,16.094,99.9,-0.0024736
21.6,239.537,16.094,99.899,-0.0027032
21.65,240.038,16.094,99.897,-0.0023360
21.7,240.538,16.094,99.896,-0.0023831
21.75,241.038,16.093,99.895,-0.0025209
21.8,241.538,16.093,99.894,-0.0023825
21.85,242.038,16.093,99.893,-0.0020618
21.9,242.538,16.093,99.891,-0.0023821
21.95,243.038,16.093,99.89,-0.0027949
22,243.538,16.092,99.889,-0.0024737
22.05,244.038,16.092,99.888,-0.0021978
22.1,244.538,16.092,99.886,-0.0027937
22.15,245.038,16.092,99.885,-0.0025190
22.2,245.538,16.092,99.884,-0.0028854
22.25,246.039,16.091,99.882,-0.0043967
22.3,246.539,16.091,99.88,-0.0027019
22.35,247.039,16.091,99.879,-0.0025641
22.4,247.539,16.091,99.878,-0.0022457
22.45,248.039,16.09,99.877,-0.0025206
22.5,248.539,16.09,99.876,-0.0018785
22.55,249.039,16.09,99.874,-0.0023825
22.6,249.539,16.09,99.873,-0.0029778
22.65,250.039,16.09,99.872,-0.0022457
22.7,250.539,16.089,99.871,-0.0025653
22.75,251.039,16.089,99.869,-0.0025660
22.8,251.54,16.089,99.868,-0.0032075
22.85,252.04,16.089,99.866,-0.0028414
22.9,252.54,16.089,99.865,-0.0031153
22.95,253.04,16.088,99.864,-0.0029789
23,253.54,16.088,99.862,-0.0026111
23.05,254.04,16.088,99.861,-0.0031164
23.1,254.54,16.088,99.86,-0.0027039
23.15,255.04,16.087,99.858,-0.0029315
23.2,255.54,16.087,99.857,-0.0031150
23.25,256.04,16.087,99.856,-0.0028856
23.3,256.54,16.087,99.854,-0.0025655
23.35,257.041,16.087,99.853,-0.0028846
23.4,257.541,16.086,99.851,-0.0029751
23.45,258.041,16.086,99.85,-0.0026108
23.5,258.541,16.086,99.848,-0.0031153
23.55,259.041,16.086,99.847,-0.0027033
23.6,259.541,16.085,99.845,-0.0028858
23.65,260.041,16.085,99.844,-0.0022907
23.7,260.541,16.085,99.842,-0.0031611
23.75,261.041,16.085,99.841,-0.0028867
23.8,261.541,16.084,99.839,-0.0028388
23.85,262.041,16.084,99.838,-0.0028388
23.9,262.542,16.084,99.836,-0.0028388
23.95,263.042,16.084,99.835,-0.0027930
24,263.542,16.083,99.833,-0.0034811
24.05,264.042,16.083,99.832,-0.0033450
24.1,264.542,16.083,99.83,-0.0029321
24.15,265.042,16.083,99.828,-0.0032051
24.2,265.542,16.082,99.827,-0.0034341
24.25,266.042,16.082,99.825,-0.0036630
24.3,266.542,16.082,99.824,-0.0028388
24.35,267.042,16.082,99.822,-0.0032985
24.4,267.542,16.081,99.821,-0.0030237
24.45,268.043,16.081,99.819,-0.0033450
24.5,268.543,16.081,99.817,-0.0032522
24.55,269.043,16.081,99.816,-0.0030690
24.6,269.543,16.08,99.814,-0.0032521
24.65,270.043,16.08,99.813,-0.0030237
24.7,270.543,16.08,99.811,-0.0037102
24.75,271.043,16.08,99.81,-0.0033443
24.8,271.543,16.079,99.808,-0.0031146
24.85,272.043,16.079,99.806,-0.0032985
24.9,272.543,16.079,99.805,-0.0030687
24.95,273.043,16.079,99.803,-0.0028399
25,273.543,16.078,99.802,-0.0030220
25.05,274.044,16.078,99.8,-0.0034322
25.1,274.544,16.078,99.798,-0.0032051
25.15,275.044,16.078,99.797,-0.0029745
25.2,275.544,16.077,99.795,-0.0030678
25.25,276.044,16.077,99.793,-0.0031581
25.3,276.544,16.077,99.792,-0.0031125
25.35,277.044,16.076,99.79,-0.0036630
25.4,277.544,16.076,99.788,-0.0033902
25.45,278.044,16.076,99.786,-0.0034799
25.5,278.544,16.076,99.784,-0.0031610
25.55,279.044,16.075,99.783,-0.0033914
25.6,279.545,16.075,99.781,-0.0033913
25.65,280.045,16.075,99.78,-0.0034341
25.7,280.545,16.075,99.778,-0.0034353
25.75,281.045,16.074,99.776,-0.0038462
25.81,281.545,16.074,99.774,-0.0036642
25.86,282.045,16.074,99.772,-0.0035270
25.91,282.545,16.073,99.771,-0.0035256
25.96,283.045,16.073,99.769,-0.0036630
26.01,283.545,16.073,99.767,-0.0036172
26.06,284.045,16.072,99.765,-0.0037525
26.11,284.545,16.072,99.764,-0.0035694
26.16,285.046,16.072,99.762,-0.0035243
26.21,285.546,16.072,99.76,-0.0035688
26.26,286.046,16.071,99.758,-0.0035237
26.31,286.546,16.071,99.756,-0.0036596
26.36,287.046,16.071,99.754,-0.0035237
26.4,287.546,16.07,99.753,-0.0037073
26.46,288.046,16.07,99.751,-0.0037088
26.51,288.546,16.07,99.749,-0.0038004
26.56,289.046,16.07,99.747,-0.0039857
26.61,289.546,16.069,99.745,-0.0040316
26.66,290.046,16.069,99.743,-0.0046270
26.71,290.547,16.069,99.741,-0.0038955
26.76,291.047,16.068,99.739,-0.0036172
26.81,291.547,16.068,99.737,-0.0037566
26.86,292.047,16.068,99.735,-0.0038489
26.91,292.547,16.067,99.733,-0.0037122
26.96,293.047,16.067,99.731,-0.0032074
27.01,293.547,16.067,99.729,-0.0038483
27.06,294.047,16.066,99.727,-0.0038941
27.11,294.547,16.066,99.725,-0.0038940
27.16,295.047,16.066,99.723,-0.0036185
27.21,295.547,16.065,99.721,-0.0077381
27.26,296.048,16.065,99.719,-0.0045471
27.31,296.548,16.065,99.717,-0.0040441
27.36,297.048,16.064,99.715,-0.0040019
27.41,297.548,16.064,99.713,-0.0037669
27.46,298.048,16.064,99.711,-0.0040848
27.51,298.548,16.063,99.709,-0.0042178
27.56,299.048,16.063,99.707,-0.0047161
27.61,299.548,16.063,99.705,-0.0038906
27.66,300.048,16.062,99.703,-0.0043475
27.71,300.548,16.062,99.7,-0.0047558
27.76,301.048,16.062,99.698,-0.0047075
27.81,301.548,16.061,99.696,-0.0042062
27.86,302.049,16.061,99.694,-0.0043899
27.91,302.549,16.061,99.691,-0.0047102
27.96,303.049,16.06,99.689,-0.0046644
28.01,303.549,16.06,99.687,-0.0045746
28.06,304.049,16.059,99.684,-0.0045297
28.11,304.549,16.059,99.682,-0.0044389
28.16,305.049,16.059,99.68,-0.0048059
28.21,305.549,16.058,99.677,-0.0049881
28.26,306.049,16.058,99.675,-0.0047601
28.31,306.549,16.058,99.672,-0.0045346
28.36,307.049,16.057,99.67,-0.0050386
28.41,307.55,16.057,99.668,-0.0053143
28.46,308.05,16.056,99.665,-0.0053114
28.51,308.55,16.056,99.663,-0.0047161
28.56,309.05,16.056,99.66,-0.0050366
28.61,309.55,16.055,99.658,-0.0054457
28.66,310.05,16.055,99.655,-0.0051740
28.71,310.55,16.054,99.653,-0.0051740
28.76,311.05,16.054,99.65,-0.0053571
28.81,311.55,16.054,99.647,-0.0054049
28.86,312.05,16.053,99.645,-0.0054059
28.91,312.55,16.053,99.642,-0.0054029
28.96,313.051,16.052,99.639,-0.0056319
29.01,313.551,16.052,99.637,-0.0054457
29.06,314.051,16.051,99.634,-0.0055372
29.11,314.551,16.051,99.631,-0.0053065
29.16,315.051,16.05,99.628,-0.0055810
29.21,315.551,16.05,99.625,-0.0055830
29.26,316.051,16.049,99.622,-0.0058150
29.31,316.551,16.049,99.62,-0.0059524
29.36,317.051,16.049,99.617,-0.0058555
29.41,317.551,16.048,99.613,-0.0061321
29.46,318.051,16.048,99.611,-0.0059034
29.51,318.552,16.047,99.607,-0.0061779
29.56,319.052,16.047,99.604,-0.0063152
29.61,319.552,16.046,99.601,-0.0064044
29.66,320.052,16.046,99.598,-0.0067282
29.71,320.552,16.045,99.595,-0.0063187
29.76,321.052,16.045,99.592,-0.0062695
29.81,321.552,16.044,99.589,-0.0064067
29.86,322.052,16.044,99.586,-0.0066850
29.91,322.552,16.043,99.582,-0.0066392
29.96,323.052,16.042,99.579,-0.0065970
30.01,323.552,16.042,99.576,-0.0065043
30.06,324.053,16.041,99.572,-0.0065934
30.11,324.553,16.041,99.569,-0.0070971
30.16,325.053,16.04,99.565,-0.0067766
30.21,325.553,16.04,99.562,-0.0071925
30.26,326.053,16.039,99.558,-0.0075549
30.31,326.553,16.039,99.554,-0.0073301
30.36,327.053,16.038,99.551,-0.0072384
30.41,327.553,16.037,99.547,-0.0075591
30.46,328.053,16.037,99.543,-0.0080586
30.51,328.553,16.036,99.54,-0.0077882
30.56,329.053,16.036,99.536,-0.0080630
30.61,329.553,16.035,99.532,-0.0082447
30.66,330.054,16.034,99.528,-0.0081502
30.71,330.554,16.034,99.524,-0.0081915
30.76,331.054,16.033,99.52,-0.0079627
30.81,331.554,16.032,99.516,-0.0082875
30.86,332.054,16.032,99.512,-0.0079670
30.91,332.554,16.031,99.508,-0.0082951
30.96,333.054,16.03,99.503,-0.0084755
31.01,333.554,16.03,99.499,-0.0081088
31.06,334.054,16.029,99.495,-0.0086128
31.11,334.554,16.028,99.49,-0.0088403
31.16,335.054,16.028,99.486,-0.0089318
31.21,335.555,16.027,99.482,-0.0089236
31.26,336.055,16.026,99.477,-0.0090659
31.31,336.555,16.025,99.472,-0.0089744
31.36,337.055,16.025,99.468,-0.0096154
31.41,337.555,16.024,99.463,-0.0096154
31.46,338.055,16.023,99.458,-0.0094322
31.51,338.555,16.022,99.453,-0.0093407
31.56,339.055,16.021,99.448,-0.0097017
31.61,339.555,16.021,99.443,-0.0100275
31.66,340.055,16.02,99.438,-0.0100733
31.71,340.555,16.019,99.433,-0.0102564
31.76,341.056,16.018,99.428,-0.0103480
31.81,341.556,16.017,99.423,-0.0108974
31.86,342.056,16.016,99.417,-0.0111203
31.91,342.556,16.016,99.412,-0.0115778
31.96,343.056,16.015,99.406,-0.0108019
32.01,343.556,16.014,99.401,-0.0112595
32.06,344.056,16.013,99.395,-0.0116215
32.11,344.556,16.012,99.389,-0.0117566
32.16,345.056,16.011,99.384,-0.0115279
32.21,345.556,16.01,99.378,-0.0120311
32.26,346.056,16.009,99.372,-0.0121684
32.31,346.557,16.008,99.366,-0.0123536
32.36,347.057,16.007,99.36,-0.0124931
32.41,347.557,16.006,99.353,-0.0123626
32.46,348.057,16.005,99.347,-0.0122297
32.51,348.557,16.004,99.341,-0.0128663
32.56,349.057,16.003,99.334,-0.0136497
32.61,349.557,16.002,99.328,-0.0130881
32.66,350.057,16.001,99.321,-0.0135073
32.71,350.557,16,99.314,-0.0134999
32.76,351.057,15.999,99.307,-0.0138786
32.81,351.557,15.998,99.3,-0.0143394
32.86,352.058,15.996,99.293,-0.0144310
32.91,352.558,15.995,99.286,-0.0146924
32.96,353.058,15.994,99.278,-0.0149213
33.01,353.558,15.993,99.271,-0.0152846
33.06,354.058,15.992,99.263,-0.0152846
33.11,354.558,15.99,99.255,-0.0162606
33.16,355.058,15.989,99.247,-0.0156994
33.21,355.558,15.988,99.238,-0.0163372
33.26,356.058,15.986,99.23,-0.0166147
33.31,356.558,15.985,99.222,-0.0167491
33.36,357.058,15.984,99.213,-0.0168498
33.41,357.558,15.982,99.205,-0.0168956
33.46,358.059,15.981,99.196,-0.0172161
33.51,358.559,15.979,99.187,-0.0173077
33.56,359.059,15.978,99.179,-0.0170725
33.61,359.559,15.977,99.17,-0.0171152
33.66,360.059,15.975,99.162,-0.0165293
33.71,360.559,15.974,99.154,-0.0164377
33.76,361.059,15.973,99.146,-0.0157051
33.81,361.559,15.971,99.138,-0.0159799
33.86,362.059,15.97,99.13,-0.0150641
33.91,362.559,15.969,99.122,-0.0151612
33.96,363.059,15.968,99.115,-0.0151612
34.01,363.56,15.967,99.108,-0.0144609
34.06,364.06,15.965,99.101,-0.0141889
34.11,364.56,15.964,99.094,-0.0135073
34.16,365.06,15.963,99.087,-0.0137770
34.21,365.56,15.962,99.08,-0.0135989
34.26,366.06,15.961,99.073,-0.0134566
34.31,366.56,15.96,99.066,-0.0140110
34.36,367.06,15.959,99.06,-0.0132784
34.41,367.56,15.958,99.053,-0.0131458
34.46,368.06,15.957,99.047,-0.0128205
34.51,368.56,15.956,99.04,-0.0130952
34.56,369.061,15.955,99.034,-0.0129627
34.61,369.561,15.954,99.027,-0.0131001
34.66,370.061,15.953,99.021,-0.0131965
34.71,370.561,15.952,99.014,-0.0131024
34.76,371.061,15.95,99.008,-0.0130107
34.81,371.561,15.949,99.002,-0.0128734
34.86,372.061,15.948,98.995,-0.0131001
34.91,372.561,15.947,98.989,-0.0131025
34.96,373.061,15.946,98.982,-0.0129579
35.01,373.561,15.945,98.976,-0.0134615
35.06,374.061,15.944,98.969,-0.0128205
35.11,374.562,15.943,98.963,-0.0130375
35.16,375.062,15.942,98.957,-0.0132278
35.21,375.562,15.941,98.95,-0.0132326
35.26,376.062,15.94,98.943,-0.0134084
35.31,376.562,15.939,98.937,-0.0133627
35.36,377.062,15.938,98.93,-0.0134084
35.41,377.562,15.937,98.923,-0.0137745
35.46,378.062,15.936,98.917,-0.0134035
35.51,378.562,15.935,98.91,-0.0138152
35.56,379.062,15.934,98.903,-0.0137670
35.61,379.562,15.933,98.897,-0.0136654
35.66,380.063,15.931,98.89,-0.0137569
35.71,380.563,15.93,98.883,-0.0138483
35.76,381.063,15.929,98.876,-0.0141225
35.81,381.563,15.928,98.869,-0.0138483
35.86,382.063,15.927,98.862,-0.0140690
35.91,382.563,15.926,98.855,-0.0141734
35.96,383.063,15.925,98.848,-0.0142217
36.01,383.563,15.924,98.841,-0.0146763
36.06,384.063,15.922,98.834,-0.0145013
36.11,384.563,15.921,98.827,-0.0146386
36.16,385.063,15.92,98.819,-0.0146843
36.21,385.563,15.919,98.812,-0.0148646
36.26,386.064,15.918,98.805,-0.0152874
36.31,386.564,15.916,98.797,-0.0155678
36.36,387.064,15.915,98.789,-0.0154304
36.41,387.564,15.914,98.781,-0.0156593
36.46,388.064,15.913,98.774,-0.0161113
36.51,388.564,15.911,98.765,-0.0165812
36.56,389.064,15.91,98.757,-0.0168561
36.61,389.564,15.909,98.749,-0.0169414
36.66,390.064,15.907,98.74,-0.0172256
36.71,390.564,15.906,98.732,-0.0174973
36.76,391.064,15.905,98.723,-0.0178211
36.81,391.565,15.903,98.714,-0.0179487
36.86,392.065,15.902,98.705,-0.0187202
36.91,392.565,15.9,98.696,-0.0187133
36.96,393.065,15.899,98.686,-0.0191287
37.01,393.565,15.897,98.677,-0.0194139
37.06,394.065,15.896,98.667,-0.0192766
37.11,394.565,15.894,98.657,-0.0196429
37.16,395.065,15.892,98.647,-0.0202381
37.21,395.565,15.891,98.637,-0.0201576
37.26,396.065,15.889,98.627,-0.0204483
37.31,396.565,15.888,98.617,-0.0205286
37.36,397.066,15.886,98.607,-0.0211764
37.41,397.566,15.884,98.596,-0.0216834
37.46,398.066,15.882,98.585,-0.0217491
37.51,398.566,15.881,98.574,-0.0222406
37.56,399.066,15.879,98.563,-0.0228938
37.61,399.566,15.877,98.551,-0.0236264
37.66,400.066,15.875,98.54,-0.0237768
37.71,400.566,15.873,98.528,-0.0235348
37.76,401.066,15.871,98.516,-0.0241758
37.81,401.566,15.869,98.503,-0.0248626
37.86,402.066,15.867,98.491,-0.0253298
37.91,402.567,15.865,98.478,-0.0256680
37.96,403.067,15.863,98.465,-0.0259015
38.01,403.567,15.861,98.452,-0.0261809
38.06,404.067,15.859,98.439,-0.0273151
38.11,404.567,15.857,98.425,-0.0277828
38.16,405.067,15.854,98.411,-0.0282354
38.21,405.567,15.852,98.397,-0.0284538
38.26,406.067,15.85,98.383,-0.0291560
38.31,406.567,15.847,98.368,-0.0298829
38.36,407.067,15.845,98.353,-0.0304778
38.41,407.567,15.842,98.338,-0.0309982
38.46,408.068,15.84,98.322,-0.0324854
38.51,408.568,15.837,98.305,-0.0332113
38.56,409.068,15.835,98.289,-0.0335315
38.61,409.568,15.832,98.272,-0.0343550
38.66,410.068,15.829,98.254,-0.0350082
38.71,410.568,15.826,98.236,-0.0364793
38.76,411.068,15.823,98.218,-0.0373169
38.81,411.568,15.82,98.199,-0.0381519
38.86,412.068,15.817,98.18,-0.0393099
38.91,412.568,15.814,98.161,-0.0405380
38.96,413.068,15.811,98.14,-0.0414456
39.01,413.568,15.807,98.119,-0.0428337
39.06,414.069,15.804,98.098,-0.0436653
39.11,414.569,15.8,98.075,-0.0448765
39.16,415.069,15.797,98.053,-0.0462658
39.21,415.569,15.793,98.029,-0.0475755
39.26,416.069,15.789,98.005,-0.0491031
39.31,416.569,15.785,97.981,-0.0503202
39.36,417.069,15.781,97.955,-0.0517841
39.41,417.569,15.777,97.929,-0.0539081
39.46,418.069,15.772,97.902,-0.0553979
39.51,418.569,15.768,97.873,-0.0572030
39.56,419.069,15.763,97.844,-0.0585544
39.61,419.57,15.758,97.814,-0.0609554
39.66,420.07,15.753,97.784,-0.0631179
39.71,420.57,15.748,97.751,-0.0650403
39.76,421.07,15.743,97.718,-0.0710550
39.81,421.57,15.737,97.682,-0.0764614
39.86,422.07,15.73,97.641,-0.0846154
39.91,422.57,15.723,97.599,-0.0891026
39.96,423.07,15.716,97.552,-0.0962912
40.01,423.57,15.708,97.504,-0.0977106
40.06,424.07,15.7,97.455,-0.1072350
40.11,424.57,15.692,97.401,-0.1162850
40.16,425.071,15.682,97.344,-0.1186640
40.21,425.571,15.673,97.284,-0.1266010
40.26,426.071,15.663,97.222,-0.1239720
40.31,426.571,15.652,97.158,-0.1321570
40.36,427.071,15.642,97.091,-0.1366380
40.41,427.571,15.631,97.024,-0.1331690
40.46,428.071,15.62,96.956,-0.1388440
40.51,428.571,15.608,96.882,-0.1518770
40.56,429.071,15.595,96.798,-0.1732600
40.61,429.571,15.58,96.707,-0.1841330
40.66,430.071,15.565,96.612,-0.1915430
40.71,430.572,15.548,96.512,-0.2028130
40.76,431.072,15.531,96.406,-0.2113330
40.81,431.572,15.514,96.296,-0.2221360
40.86,432.072,15.495,96.181,-0.2345530
40.91,432.572,15.476,96.063,-0.2451880
40.96,433.072,15.456,95.939,-0.2530700
41.01,433.572,15.435,95.807,-0.2722990
41.06,434.072,15.413,95.669,-0.2855770
41.11,434.572,15.39,95.527,-0.2991040
41.16,435.072,15.366,95.377,-0.3181320
41.21,435.572,15.34,95.222,-0.3150850
41.26,436.073,15.315,95.062,-0.3233250
41.31,436.573,15.288,94.896,-0.3386650
41.36,437.073,15.26,94.721,-0.3557010
41.41,437.573,15.231,94.539,-0.3683730
41.46,438.073,15.2,94.351,-0.3747260
41.51,438.573,15.168,94.153,-0.4049780
41.56,439.073,15.135,93.948,-0.4248720
41.61,439.573,15.1,93.731,-0.4535150
41.66,440.073,15.064,93.505,-0.4669720
41.71,440.573,15.025,93.264,-0.4974850
41.76,441.073,14.984,93.011,-0.5234530
41.81,441.573,14.943,92.752,-0.5154060
41.86,442.074,14.898,92.476,-0.5645650
41.91,442.574,14.852,92.191,-0.5728040
41.96,443.074,14.806,91.901,-0.5744500
42.01,443.574,14.757,91.598,-0.6100810
42.06,444.074,14.705,91.28,-0.6460670
42.11,444.574,14.653,90.951,-0.6727220
42.16,445.074,14.597,90.609,-0.7290540
42.21,445.574,14.538,90.242,-0.7650610
42.26,446.074,14.477,89.861,-0.7866510
42.31,446.574,14.414,89.469,-0.8238320
42.36,447.074,14.35,89.072,-0.8075690
42.41,447.575,14.283,88.658,-0.8636700
42.46,448.075,14.215,88.237,-0.8564010
42.51,448.575,14.144,87.796,-0.9160260
42.56,449.075,14.069,87.327,-0.9353750
42.61,449.575,13.992,86.849,-0.9399360
42.66,450.075,13.91,86.344,-1.04797
42.71,450.575,13.826,85.818,-1.04696
42.76,451.075,13.739,85.278,-1.10247
42.81,451.575,13.643,84.687,-1.22405
42.86,452.075,13.541,84.053,-1.22401
42.91,452.575,13.442,83.438,-1.28326
42.96,453.076,13.34,82.805,-1.31148
43.01,453.576,13.232,82.131,-1.26216
43.06,454.076,13.127,81.483,-1.37967
43.11,454.576,13.016,80.792,-1.46136
43.16,455.076,12.898,80.058,-1.50645
43.21,455.576,12.774,79.29,-1.54184
43.26,456.076,12.647,78.5,-1.51467
43.31,456.576,12.516,77.69,-1.56985
43.36,457.076,12.385,76.879,-1.63502
43.41,457.576,12.248,76.027,-1.71961
43.46,458.076,12.108,75.158,-1.69093
43.51,458.577,11.966,74.276,-1.82759
43.56,459.077,11.817,73.349,-1.88309
43.61,459.577,11.66,72.379,-2.01239
43.66,460.077,11.501,71.387,-2.04738
43.71,460.577,11.346,70.428,-2.03874
43.76,461.077,11.174,69.358,-2.25169
43.81,461.577,10.993,68.236,-2.038
43.86,462.077,10.823,67.179,-2.35264
43.91,462.577,10.635,66.012,-2.30499
43.96,463.077,10.445,64.836,-2.38624
44.01,463.577,10.255,63.655,-2.40418
44.06,464.078,10.051,62.389,-2.52955
44.11,464.578,9.837,61.062,-2.69728
44.16,465.078,9.619,59.706,-2.63518
44.21,465.578,9.411,58.416,-2.68627
44.26,466.078,9.19,57.043,-2.73793
44.31,466.578,8.962,55.629,-2.88178
44.36,467.078,8.736,54.226,-2.9885
44.41,467.578,8.497,52.743,-3.02004
44.46,468.078,8.25,51.209,-3.23211
44.51,468.578,8.002,49.667,-3.05791
44.56,469.078,7.754,48.132,-3.10018
44.61,469.578,7.5,46.554,-3.20224
44.66,470.079,7.241,44.944,-3.27322
44.71,470.579,6.972,43.277,-3.3015
44.76,471.079,6.709,41.645,-3.1765
44.81,471.579,6.445,40.007,-3.27392
44.86,472.079,6.179,38.353,-3.29795
44.91,472.579,5.914,36.711,-3.37514
44.96,473.079,5.643,35.029,-3.42922
45.01,473.579,5.359,33.266,-3.64702
45.06,474.079,5.056,31.385,-3.37427
45.11,474.579,4.785,29.704,-3.29046
45.16,475.079,4.523,28.072,-3.30184
45.21,475.58,4.26,26.443,-3.2409
45.26,476.08,3.996,24.803,-3.15927
45.31,476.58,3.74,23.214,-3.07283
45.36,477.08,3.498,21.71,-3.08814
45.41,477.58,3.251,20.179,-3.0197
45.46,478.08,2.999,18.618,-2.93399
45.51,478.58,2.774,17.217,-2.85271
45.56,479.08,2.547,15.812,-2.76556
45.61,479.58,2.329,14.455,-2.67613
45.66,480.08,2.118,13.15,-2.51958
45.71,480.58,1.917,11.901,-2.35776
45.76,481.081,1.736,10.774,-2.20805
45.81,481.581,1.559,9.675,-2.10245
45.86,482.081,1.395,8.66,-1.91815
45.91,482.581,1.245,7.726,-1.76349
45.96,483.081,1.112,6.9,-1.60978
46.01,483.581,0.9870000,6.127,-1.46892
46.06,484.081,0.8770000,5.442,-1.29775
46.1,484.581,0.7820000,4.852,-1.10429
46.15,485.081,0.6950000,4.317,-0.9663770
46.2,485.581,0.6200000,3.852,-0.8536510
46.25,486.081,0.5580000,3.465,-0.7607610
46.3,486.582,0.5030000,3.124,-0.6216790
46.35,487.082,0.4570000,2.836,-0.5403690
46.4,487.582,0.4180000,2.595,-0.4458930
46.45,488.082,0.3860000,2.394,-0.3626060
46.5,488.582,0.3590000,2.231,-0.2817280
46.55,489.082,0.3380000,2.1,-0.2324710
46.6,489.582,0.3210000,1.995,-0.1792800
46.65,490.082,0.3090000,1.915,-0.1406010
46.7,490.582,0.2990000,1.857,-0.0989214
46.75,491.082,0.2920000,1.815,-0.0682842
46.8,491.582,0.2880000,1.789,-0.0396215
46.85,492.083,0.2850000,1.769,-0.0394877
46.9,492.583,0.2820000,1.75,-0.0375518
46.95,493.083,0.2790000,1.733,-0.0334667
47,493.583,0.2770000,1.717,-0.0286990
47.06,494.083,0.2750000,1.704,-0.0237611
47.11,494.583,0.2730000,1.693,-0.0192071
47.16,495.083,0.2710000,1.685,-0.0154762
47.21,495.583,0.2700000,1.678,-0.0125607
47.26,496.083,0.2690000,1.672,-0.0100191
47.31,496.583,0.2690000,1.668,-0.0075878
47.36,497.083,0.2680000,1.665,-0.0060130
47.41,497.583,0.2680000,1.662,-0.0046770
47.46,498.084,0.2670000,1.66,-0.0035510
47.51,498.584,0.2670000,1.658,-0.0028231
47.56,499.084,0.2670000,1.657,-0.0022422
47.61,499.584,0.2670000,1.656,-0.0021663
47.66,500.084,0.2670000,1.655,-0.0014257
47.71,500.584,0.2670000,1.654,-0.0008378
47.76,501.084,0.2660000,1.654,-0.0006364
47.81,501.584,0.2660000,1.654,-0.0004115
47.86,502.084,0.2660000,1.653,-0.0006198
47.91,502.584,0.2660000,1.653,-0.0004766
47.96,503.084,0.2660000,1.653,-0.0003673
48.01,503.585,0.2660000,1.653,-0.0005187
48.06,504.085,0.2660000,1.652,-0.0003340
48.11,504.585,0.2660000,1.652,0.0000721
48.16,505.085,0.2660000,1.652,-0.0001705
48.21,505.585,0.2660000,1.652,-0.0002690
48.26,506.085,0.2660000,1.652,-0.0001761
48.31,506.585,0.2660000,1.652,-0.0000492
48.36,507.085,0.2660000,1.652,-0.0002962
48.41,507.585,0.2660000,1.652,-0.0002254
48.46,508.085,0.2660000,1.652,-0.0000878
48.51,508.585,0.2660000,1.652,-0.0001591
48.56,509.086,0.2660000,1.651,-0.0004178
48.61,509.586,0.2660000,1.651,0.0001214
48.66,510.086,0.2660000,1.651,-0.0001179
48.71,510.586,0.2660000,1.651,-0.0003471
48.76,511.086,0.2660000,1.651,-0.0003373
48.81,511.586,0.2660000,1.651,-0.0003158
48.86,512.086,0.2660000,1.651,-0.0000464
48.91,512.586,0.2660000,1.651,-0.0000072
48.96,513.086,0.2660000,1.651,-0.0003450
49.01,513.586,0.2660000,1.651,-0.0001692
49.06,514.086,0.2660000,1.65,-0.0001115
49.11,514.587,0.2660000,1.65,0.0000422
49.16,515.087,0.2660000,1.65,-0.0001759
49.21,515.587,0.2660000,1.65,-0.0002278
49.26,516.087,0.2660000,1.65,-0.0001787
49.31,516.587,0.2660000,1.65,-0.0005334
49.36,517.087,0.2660000,1.65,-0.0004545
49.41,517.587,0.2660000,1.65,-0.0003822
49.46,518.087,0.2660000,1.65,-0.0004784
49.51,518.587,0.2660000,1.65,-0.0003623
49.56,519.087,0.2660000,1.649,-0.0000300
49.61,519.587,0.2660000,1.649,-0.0000243
49.66,520.088,0.2660000,1.649,-0.0001479
49.71,520.588,0.2660000,1.649,-0.0004559
49.76,521.088,0.2660000,1.649,-0.0004725
49.81,521.588,0.2660000,1.649,-0.0002372
49.86,522.088,0.2660000,1.649,0.0000443
49.91,522.588,0.2660000,1.649,-0.0000801
49.96,523.088,0.2660000,1.648,-0.0000357
50.01,523.588,0.2660000,1.648,-0.0003071
50.06,524.088,0.2660000,1.648,-0.0004306
50.11,524.588,0.2660000,1.648,-0.0003292
50.16,525.088,0.2660000,1.648,-0.0000400
50.21,525.588,0.2650000,1.648,-0.0002012
50.25,526.089,0.2650000,1.648,-0.0003112
50.3,526.589,0.2650000,1.648,-0.0000492
50.35,527.089,0.2650000,1.648,-0.0004416
50.4,527.589,0.2650000,1.647,-0.0005746
50.45,528.089,0.2650000,1.647,-0.0007104
50.5,528.589,0.2650000,1.647,-0.0004636
50.55,529.089,0.2650000,1.647,0.0000086
50.6,529.589,0.2650000,1.647,-0.0002101
50.65,530.089,0.2650000,1.646,-0.0004433
50.7,530.589,0.2650000,1.646,-0.0003996
50.75,531.089,0.2650000,1.646,-0.0004200
50.8,531.59,0.2650000,1.646,-0.0000436
50.85,532.09,0.2650000,1.646,-0.0005272
50.9,532.59,0.2650000,1.645,-0.0009462
50.95,533.09,0.2650000,1.645,-0.0006197
51,533.59,0.2650000,1.645,-0.0004467
51.06,534.09,0.2650000,1.645,-0.0006011
51.11,534.59,0.2650000,1.645,-0.0001738
51.16,535.09,0.2650000,1.644,-0.0001673
51.21,535.59,0.2650000,1.644,-0.0004602
51.26,536.09,0.2650000,1.644,-0.0004146
51.31,536.59,0.2650000,1.644,-0.0004564
51.36,537.091,0.2650000,1.644,-0.0004028
51.41,537.591,0.2650000,1.643,-0.0004257
51.46,538.091,0.2650000,1.643,-0.0007576
51.51,538.591,0.2650000,1.643,-0.0005670
51.56,539.091,0.2650000,1.643,-0.0006324
51.61,539.591,0.2650000,1.642,-0.0006940
51.66,540.091,0.2650000,1.642,-0.0003239
51.71,540.591,0.2650000,1.642,-0.0005745
51.76,541.091,0.2640000,1.642,-0.0005283
51.81,541.591,0.2640000,1.641,-0.0001172
51.86,542.091,0.2640000,1.641,-0.0003445
51.91,542.592,0.2640000,1.641,-0.0006057
51.96,543.092,0.2640000,1.641,-0.0006568
52.01,543.592,0.2640000,1.64,-0.0006577
52.06,544.092,0.2640000,1.64,-0.0006000
52.11,544.592,0.2640000,1.64,-0.0005433
52.16,545.092,0.2640000,1.64,-0.0005819
52.2,545.592,0.2640000,1.639,-0.0003209
52.25,546.092,0.2640000,1.639,-0.0005382
52.3,546.592,0.2640000,1.639,-0.0004766
52.35,547.092,0.2640000,1.638,-0.0005204
52.4,547.592,0.2640000,1.638,-0.0006369
52.45,548.093,0.2640000,1.638,-0.0004259
52.5,548.593,0.2640000,1.638,-0.0005330
52.55,549.093,0.2640000,1.637,-0.0008535
52.6,549.593,0.2640000,1.637,-0.0006152
52.65,550.093,0.2640000,1.637,-0.0008061
52.7,550.593,0.2640000,1.636,-0.0007705
52.75,551.093,0.2640000,1.636,-0.0006230
52.8,551.593,0.2640000,1.636,-0.0005808
52.85,552.093,0.2630000,1.636,-0.0009801
52.9,552.593,0.2630000,1.635,-0.0007875
52.95,553.093,0.2630000,1.635,-0.0006023
53,553.593,0.2630000,1.634,-0.0005423
53.05,554.094,0.2630000,1.634,-0.0003292
53.1,554.594,0.2630000,1.634,-0.0004451
53.15,555.094,0.2630000,1.633,-0.0004580
53.2,555.594,0.2630000,1.633,-0.0008226
53.25,556.094,0.2630000,1.633,-0.0009002
53.3,556.594,0.2630000,1.632,-0.0007077
53.35,557.094,0.2630000,1.632,-0.0007147
53.4,557.594,0.2630000,1.632,-0.0007176
53.45,558.094,0.2630000,1.631,-0.0014636
53.5,558.594,0.2630000,1.631,-0.0009198
53.55,559.094,0.2630000,1.63,-0.0008555
53.6,559.595,0.2630000,1.63,-0.0009362
53.65,560.095,0.2630000,1.63,-0.0007601
53.7,560.595,0.2620000,1.629,-0.0007443
53.75,561.095,0.2620000,1.629,-0.0005799
53.8,561.595,0.2620000,1.629,-0.0008140
53.85,562.095,0.2620000,1.628,-0.0006127
53.9,562.595,0.2620000,1.628,-0.0005267
53.95,563.095,0.2620000,1.628,-0.0006627
54,563.595,0.2620000,1.627,-0.0008619
54.05,564.095,0.2620000,1.627,-0.0007804
54.1,564.595,0.2620000,1.626,-0.0009043
54.15,565.096,0.2620000,1.626,-0.0007499
54.2,565.596,0.2620000,1.626,-0.0008807
54.25,566.096,0.2620000,1.625,-0.0007683
54.3,566.596,0.2620000,1.625,-0.0011290
54.35,567.096,0.2620000,1.625,-0.0008828
54.4,567.596,0.2620000,1.624,-0.0006968
54.45,568.096,0.2620000,1.624,-0.0010553
54.5,568.596,0.2620000,1.623,-0.0009065
54.55,569.096,0.2610000,1.623,-0.0008050
54.6,569.596,0.2610000,1.622,-0.0009118
54.65,570.096,0.2610000,1.622,-0.0008975
54.7,570.597,0.2610000,1.621,-0.0012793
54.75,571.097,0.2610000,1.621,-0.0011391
54.8,571.597,0.2610000,1.62,-0.0013723
54.85,572.097,0.2610000,1.62,-0.0011477
54.9,572.597,0.2610000,1.619,-0.0011918
54.95,573.097,0.2610000,1.619,-0.0008980
55,573.597,0.2610000,1.618,-0.0011956
55.05,574.097,0.2610000,1.617,-0.0012303
55.1,574.597,0.2600000,1.617,-0.0009837
55.15,575.097,0.2600000,1.616,-0.0011742
55.2,575.597,0.2600000,1.616,-0.0012518
55.25,576.098,0.2600000,1.615,-0.0010384
55.3,576.598,0.2600000,1.614,-0.0011720
55.35,577.098,0.2600000,1.613,-0.0014395
55.4,577.598,0.2600000,1.613,-0.0014893
55.45,578.098,0.2600000,1.612,-0.0016845
55.5,578.598,0.2600000,1.611,-0.0014793
55.55,579.098,0.2590000,1.61,-0.0015321
55.6,579.598,0.2590000,1.609,-0.0018230
55.65,580.098,0.2590000,1.609,-0.0019045
55.7,580.598,0.2590000,1.608,-0.0018088
55.75,581.098,0.2590000,1.607,-0.0019774
55.8,581.598,0.2590000,1.606,-0.0020375
55.85,582.099,0.2590000,1.605,-0.0022676
55.9,582.599,0.2580000,1.604,-0.0027732
55.95,583.099,0.2580000,1.603,-0.0022132
56,583.599,0.2580000,1.602,-0.0020432
56.05,584.099,0.2580000,1.601,-0.0022404
56.1,584.599,0.2580000,1.6,-0.0024615
56.15,585.099,0.2580000,1.599,-0.0022092
56.2,585.599,0.2570000,1.598,-0.0024922
56.25,586.099,0.2570000,1.596,-0.0022858
56.3,586.599,0.2570000,1.595,-0.0022619
56.35,587.099,0.2570000,1.594,-0.0023769
56.4,587.6,0.2570000,1.593,-0.0022969
56.45,588.1,0.2560000,1.592,-0.0024348
56.5,588.6,0.2560000,1.591,-0.0023069
56.55,589.1,0.2560000,1.589,-0.0023398
56.6,589.6,0.2560000,1.588,-0.0024028
56.64,590,0.2560000,1.587,-0.0021318