File: R/rHDPE_App/app/www/Output/TGA/Condensed_Data/Resin5_0__1.csv
1.04,30,19.037,100.017
1.08,30.4001,19.037,100.017
1.13,30.8001,19.037,100.017
1.18,31.2002,19.037,100.017
1.22,31.6003,19.037,100.017
1.27,32.0004,19.037,100.017
1.31,32.4004,19.037,100.017
1.36,32.8005,19.037,100.017
1.4,33.2006,19.037,100.017
1.45,33.6006,19.037,100.017
1.49,34.0007,19.037,100.017
1.53,34.4008,19.037,100.017
1.58,34.8009,19.037,100.017
1.62,35.2009,19.037,100.017
1.67,35.601,19.037,100.017
1.71,36.0011,19.037,100.017
1.75,36.4011,19.037,100.017
1.79,36.8012,19.037,100.017
1.84,37.2013,19.037,100.017
1.88,37.6014,19.037,100.016
1.92,38.0014,19.037,100.016
1.97,38.4015,19.037,100.016
2.01,38.8016,19.037,100.016
2.05,39.2016,19.037,100.016
2.09,39.6017,19.037,100.016
2.14,40.0018,19.037,100.016
2.18,40.4019,19.037,100.016
2.22,40.8019,19.037,100.016
2.26,41.202,19.037,100.016
2.31,41.6021,19.037,100.016
2.35,42.0021,19.037,100.017
2.39,42.4022,19.037,100.017
2.43,42.8023,19.037,100.017
2.47,43.2024,19.037,100.017
2.51,43.6024,19.037,100.017
2.56,44.0025,19.037,100.017
2.6,44.4026,19.037,100.017
2.64,44.8026,19.037,100.017
2.68,45.2027,19.037,100.017
2.72,45.6028,19.038,100.018
2.76,46.0029,19.038,100.018
2.81,46.4029,19.038,100.018
2.85,46.803,19.038,100.018
2.89,47.2031,19.038,100.018
2.93,47.6031,19.038,100.018
2.97,48.0032,19.038,100.019
3.01,48.4033,19.038,100.019
3.06,48.8034,19.038,100.019
3.1,49.2034,19.038,100.019
3.14,49.6035,19.038,100.02
3.18,50.0036,19.038,100.02
3.22,50.4036,19.038,100.02
3.26,50.8037,19.038,100.02
3.3,51.2038,19.038,100.02
3.34,51.6039,19.038,100.021
3.38,52.0039,19.038,100.021
3.43,52.404,19.038,100.021
3.46,52.8041,19.038,100.021
3.51,53.2041,19.038,100.021
3.55,53.6042,19.038,100.022
3.59,54.0043,19.038,100.022
3.63,54.4044,19.038,100.022
3.67,54.8044,19.038,100.022
3.71,55.2045,19.038,100.022
3.75,55.6046,19.038,100.023
3.79,56.0046,19.039,100.023
3.83,56.4047,19.039,100.023
3.87,56.8048,19.039,100.023
3.91,57.2049,19.039,100.024
3.95,57.6049,19.039,100.024
3.99,58.005,19.039,100.024
4.04,58.4051,19.039,100.025
4.08,58.8051,19.039,100.025
4.12,59.2052,19.039,100.025
4.16,59.6053,19.039,100.025
4.2,60.0054,19.039,100.025
4.24,60.4054,19.039,100.026
4.28,60.8055,19.039,100.026
4.32,61.2056,19.039,100.026
4.36,61.6056,19.039,100.026
4.4,62.0057,19.039,100.026
4.44,62.4058,19.039,100.027
4.48,62.8059,19.039,100.027
4.52,63.2059,19.039,100.027
4.56,63.606,19.039,100.027
4.6,64.0061,19.039,100.027
4.64,64.4061,19.039,100.027
4.68,64.8062,19.039,100.028
4.72,65.2063,19.039,100.028
4.76,65.6064,19.039,100.028
4.8,66.0064,19.04,100.028
4.84,66.4065,19.04,100.028
4.88,66.8066,19.04,100.029
4.92,67.2066,19.04,100.029
4.96,67.6067,19.04,100.029
5,68.0068,19.04,100.029
5.04,68.4069,19.04,100.029
5.08,68.8069,19.04,100.029
5.12,69.207,19.04,100.029
5.16,69.6071,19.04,100.03
5.2,70.0071,19.04,100.03
5.24,70.4072,19.04,100.03
5.28,70.8073,19.04,100.03
5.32,71.2074,19.04,100.03
5.36,71.6074,19.04,100.03
5.4,72.0075,19.04,100.031
5.44,72.4076,19.04,100.031
5.48,72.8076,19.04,100.031
5.52,73.2077,19.04,100.031
5.56,73.6078,19.04,100.031
5.6,74.0079,19.04,100.031
5.64,74.4079,19.04,100.031
5.68,74.808,19.04,100.031
5.72,75.2081,19.04,100.032
5.76,75.6081,19.04,100.032
5.8,76.0082,19.04,100.032
5.84,76.4083,19.04,100.032
5.88,76.8084,19.04,100.032
5.92,77.2084,19.04,100.032
5.96,77.6085,19.04,100.032
6,78.0086,19.04,100.033
6.04,78.4086,19.04,100.033
6.08,78.8087,19.04,100.033
6.12,79.2088,19.04,100.033
6.16,79.6089,19.04,100.033
6.2,80.0089,19.04,100.033
6.24,80.409,19.04,100.033
6.28,80.8091,19.04,100.033
6.32,81.2091,19.04,100.033
6.36,81.6092,19.041,100.033
6.4,82.0093,19.041,100.033
6.44,82.4094,19.041,100.034
6.48,82.8094,19.041,100.034
6.52,83.2095,19.041,100.034
6.56,83.6096,19.041,100.034
6.6,84.0096,19.041,100.034
6.64,84.4097,19.041,100.034
6.68,84.8098,19.041,100.034
6.72,85.2099,19.041,100.034
6.76,85.6099,19.041,100.034
6.8,86.01,19.041,100.034
6.85,86.4101,19.041,100.034
6.89,86.8101,19.041,100.034
6.93,87.2102,19.041,100.035
6.96,87.6103,19.041,100.035
7,88.0104,19.041,100.035
7.05,88.4104,19.041,100.035
7.09,88.8105,19.041,100.035
7.13,89.2106,19.041,100.035
7.16,89.6106,19.041,100.035
7.2,90.0107,19.041,100.035
7.25,90.4108,19.041,100.035
7.29,90.8109,19.041,100.035
7.33,91.2109,19.041,100.035
7.36,91.611,19.041,100.035
7.4,92.0111,19.041,100.035
7.45,92.4111,19.041,100.035
7.49,92.8112,19.041,100.035
7.53,93.2113,19.041,100.035
7.56,93.6114,19.041,100.035
7.6,94.0114,19.041,100.035
7.65,94.4115,19.041,100.035
7.69,94.8116,19.041,100.035
7.72,95.2116,19.041,100.035
7.76,95.6117,19.041,100.035
7.8,96.0118,19.041,100.035
7.85,96.4119,19.041,100.035
7.89,96.8119,19.041,100.035
7.93,97.212,19.041,100.035
7.96,97.6121,19.041,100.035
8,98.0121,19.041,100.035
8.05,98.4122,19.041,100.035
8.09,98.8123,19.041,100.035
8.13,99.2124,19.041,100.035
8.16,99.6124,19.041,100.035
8.2,100.013,19.041,100.035
8.25,100.413,19.041,100.035
8.29,100.813,19.041,100.035
8.32,101.213,19.041,100.035
8.36,101.613,19.041,100.035
8.4,102.013,19.041,100.035
8.44,102.413,19.041,100.035
8.48,102.813,19.041,100.035
8.52,103.213,19.041,100.035
8.56,103.613,19.041,100.035
8.6,104.013,19.041,100.035
8.64,104.413,19.041,100.035
8.68,104.813,19.041,100.035
8.72,105.213,19.041,100.035
8.76,105.614,19.041,100.035
8.8,106.014,19.041,100.034
8.84,106.414,19.041,100.034
8.88,106.814,19.041,100.034
8.92,107.214,19.041,100.034
8.96,107.614,19.041,100.034
9,108.014,19.041,100.034
9.04,108.414,19.041,100.034
9.08,108.814,19.041,100.034
9.12,109.214,19.041,100.034
9.16,109.614,19.041,100.034
9.2,110.014,19.041,100.034
9.24,110.414,19.041,100.034
9.28,110.814,19.041,100.033
9.32,111.215,19.04,100.033
9.36,111.615,19.04,100.033
9.4,112.015,19.04,100.033
9.44,112.415,19.04,100.033
9.48,112.815,19.04,100.033
9.52,113.215,19.04,100.033
9.56,113.615,19.04,100.032
9.6,114.015,19.04,100.032
9.64,114.415,19.04,100.032
9.68,114.815,19.04,100.032
9.72,115.215,19.04,100.032
9.76,115.615,19.04,100.032
9.8,116.015,19.04,100.032
9.84,116.415,19.04,100.032
9.88,116.816,19.04,100.031
9.92,117.216,19.04,100.031
9.96,117.616,19.04,100.031
10,118.016,19.04,100.031
10.04,118.416,19.04,100.031
10.08,118.816,19.04,100.031
10.13,119.216,19.04,100.031
10.17,119.616,19.04,100.031
10.2,120.016,19.04,100.03
10.25,120.416,19.04,100.03
10.28,120.816,19.04,100.03
10.33,121.216,19.04,100.03
10.37,121.616,19.04,100.03
10.4,122.016,19.04,100.03
10.45,122.417,19.04,100.03
10.48,122.817,19.04,100.029
10.53,123.217,19.04,100.029
10.57,123.617,19.04,100.029
10.6,124.017,19.04,100.029
10.65,124.417,19.04,100.029
10.68,124.817,19.04,100.029
10.73,125.217,19.04,100.029
10.77,125.617,19.04,100.029
10.8,126.017,19.04,100.028
10.85,126.417,19.04,100.028
10.88,126.817,19.04,100.028
10.93,127.217,19.04,100.028
10.97,127.617,19.04,100.028
11,128.018,19.039,100.028
11.05,128.418,19.039,100.028
11.08,128.818,19.039,100.028
11.13,129.218,19.039,100.028
11.17,129.618,19.039,100.028
11.2,130.018,19.039,100.028
11.25,130.418,19.039,100.028
11.29,130.818,19.039,100.028
11.33,131.218,19.039,100.027
11.37,131.618,19.039,100.027
11.41,132.018,19.039,100.027
11.45,132.418,19.039,100.027
11.49,132.818,19.039,100.027
11.53,133.218,19.039,100.027
11.57,133.619,19.039,100.027
11.61,134.019,19.039,100.027
11.65,134.419,19.039,100.027
11.69,134.819,19.039,100.026
11.73,135.219,19.039,100.026
11.77,135.619,19.039,100.026
11.81,136.019,19.039,100.026
11.85,136.419,19.039,100.026
11.89,136.819,19.039,100.025
11.93,137.219,19.039,100.025
11.97,137.619,19.039,100.025
12.01,138.019,19.039,100.024
12.05,138.419,19.039,100.024
12.09,138.819,19.039,100.024
12.13,139.22,19.039,100.023
12.17,139.62,19.038,100.023
12.2,140.02,19.038,100.022
12.25,140.42,19.038,100.022
12.28,140.82,19.038,100.021
12.33,141.22,19.038,100.02
12.37,141.62,19.038,100.019
12.4,142.02,19.038,100.018
12.45,142.42,19.037,100.017
12.48,142.82,19.037,100.016
12.52,143.22,19.037,100.015
12.56,143.62,19.037,100.014
12.6,144.02,19.037,100.013
12.64,144.42,19.036,100.012
12.68,144.821,19.036,100.011
12.72,145.221,19.036,100.01
12.76,145.621,19.036,100.009
12.8,146.021,19.036,100.008
12.84,146.421,19.036,100.007
12.88,146.821,19.035,100.006
12.92,147.221,19.035,100.005
12.96,147.621,19.035,100.005
13,148.021,19.035,100.004
13.04,148.421,19.035,100.003
13.08,148.821,19.035,100.002
13.12,149.221,19.034,100.001
13.16,149.621,19.034,100
13.2,150.021,19.034,99.999
13.24,150.422,19.034,99.999
13.28,150.822,19.034,99.998
13.32,151.222,19.034,99.997
13.36,151.622,19.033,99.996
13.4,152.022,19.033,99.995
13.44,152.422,19.033,99.995
13.48,152.822,19.033,99.994
13.53,153.222,19.033,99.993
13.57,153.622,19.033,99.992
13.6,154.022,19.033,99.992
13.65,154.422,19.032,99.991
13.68,154.822,19.032,99.99
13.73,155.222,19.032,99.989
13.77,155.622,19.032,99.988
13.8,156.023,19.032,99.988
13.85,156.423,19.032,99.987
13.88,156.823,19.032,99.986
13.93,157.223,19.031,99.985
13.97,157.623,19.031,99.984
14.01,158.023,19.031,99.984
14.05,158.423,19.031,99.983
14.09,158.823,19.031,99.982
14.13,159.223,19.031,99.981
14.17,159.623,19.03,99.98
14.21,160.023,19.03,99.979
14.25,160.423,19.03,99.979
14.29,160.823,19.03,99.978
14.33,161.223,19.03,99.977
14.37,161.624,19.03,99.976
14.41,162.024,19.029,99.975
14.45,162.424,19.029,99.974
14.49,162.824,19.029,99.973
14.53,163.224,19.029,99.972
14.57,163.624,19.029,99.971
14.61,164.024,19.029,99.97
14.65,164.424,19.028,99.969
14.69,164.824,19.028,99.969
14.73,165.224,19.028,99.968
14.77,165.624,19.028,99.966
14.81,166.024,19.028,99.965
14.85,166.424,19.027,99.964
14.89,166.824,19.027,99.963
14.93,167.225,19.027,99.962
14.97,167.625,19.027,99.961
15.01,168.025,19.027,99.96
15.05,168.425,19.026,99.959
15.09,168.825,19.026,99.958
15.13,169.225,19.026,99.957
15.17,169.625,19.026,99.956
15.21,170.025,19.026,99.955
15.25,170.425,19.025,99.954
15.29,170.825,19.025,99.953
15.33,171.225,19.025,99.952
15.37,171.625,19.025,99.951
15.41,172.025,19.025,99.95
15.45,172.425,19.024,99.949
15.49,172.826,19.024,99.948
15.53,173.226,19.024,99.947
15.57,173.626,19.024,99.945
15.61,174.026,19.024,99.944
15.65,174.426,19.023,99.943
15.69,174.826,19.023,99.942
15.73,175.226,19.023,99.941
15.77,175.626,19.023,99.94
15.81,176.026,19.023,99.939
15.85,176.426,19.022,99.938
15.89,176.826,19.022,99.936
15.93,177.226,19.022,99.935
15.97,177.626,19.022,99.934
16.01,178.026,19.021,99.933
16.05,178.427,19.021,99.932
16.09,178.827,19.021,99.93
16.13,179.227,19.021,99.929
16.17,179.627,19.02,99.928
16.21,180.027,19.02,99.927
16.25,180.427,19.02,99.926
16.29,180.827,19.02,99.924
16.33,181.227,19.019,99.923
16.37,181.627,19.019,99.922
16.41,182.027,19.019,99.92
16.45,182.427,19.019,99.919
16.49,182.827,19.019,99.918
16.53,183.227,19.018,99.917
16.57,183.627,19.018,99.915
16.61,184.028,19.018,99.914
16.65,184.428,19.018,99.913
16.69,184.828,19.017,99.911
16.73,185.228,19.017,99.91
16.77,185.628,19.017,99.909
16.81,186.028,19.017,99.907
16.85,186.428,19.016,99.906
16.89,186.828,19.016,99.905
16.93,187.228,19.016,99.903
16.97,187.628,19.016,99.902
17.01,188.028,19.015,99.901
17.05,188.428,19.015,99.899
17.09,188.828,19.015,99.898
17.13,189.228,19.014,99.897
17.17,189.629,19.014,99.895
17.21,190.029,19.014,99.894
17.25,190.429,19.014,99.892
17.29,190.829,19.013,99.891
17.33,191.229,19.013,99.89
17.37,191.629,19.013,99.888
17.41,192.029,19.013,99.887
17.45,192.429,19.012,99.885
17.49,192.829,19.012,99.884
17.53,193.229,19.012,99.882
17.57,193.629,19.012,99.881
17.61,194.029,19.011,99.88
17.65,194.429,19.011,99.878
17.69,194.829,19.011,99.877
17.73,195.23,19.01,99.875
17.77,195.63,19.01,99.874
17.81,196.03,19.01,99.872
17.85,196.43,19.01,99.871
17.89,196.83,19.009,99.869
17.93,197.23,19.009,99.868
17.97,197.63,19.009,99.867
18.01,198.03,19.008,99.865
18.05,198.43,19.008,99.864
18.09,198.83,19.008,99.862
18.13,199.23,19.008,99.861
18.17,199.63,19.007,99.859
18.21,200.03,19.007,99.858
18.25,200.43,19.007,99.856
18.29,200.831,19.007,99.855
18.33,201.231,19.006,99.853
18.37,201.631,19.006,99.852
18.41,202.031,19.006,99.85
18.45,202.431,19.005,99.849
18.49,202.831,19.005,99.847
18.53,203.231,19.005,99.846
18.57,203.631,19.004,99.844
18.61,204.031,19.004,99.842
18.65,204.431,19.004,99.841
18.69,204.831,19.004,99.839
18.73,205.231,19.003,99.838
18.77,205.631,19.003,99.836
18.81,206.031,19.003,99.835
18.85,206.432,19.002,99.833
18.89,206.832,19.002,99.832
18.93,207.232,19.002,99.83
18.97,207.632,19.001,99.828
19.01,208.032,19.001,99.827
19.05,208.432,19.001,99.825
19.09,208.832,19.001,99.824
19.13,209.232,19,99.822
19.17,209.632,19,99.821
19.21,210.032,19,99.819
19.25,210.432,18.999,99.817
19.29,210.832,18.999,99.816
19.33,211.232,18.999,99.814
19.37,211.632,18.998,99.813
19.41,212.033,18.998,99.811
19.45,212.433,18.998,99.809
19.49,212.833,18.998,99.808
19.53,213.233,18.997,99.806
19.57,213.633,18.997,99.805
19.61,214.033,18.997,99.803
19.65,214.433,18.996,99.801
19.69,214.833,18.996,99.8
19.73,215.233,18.996,99.798
19.77,215.633,18.995,99.797
19.81,216.033,18.995,99.795
19.85,216.433,18.995,99.793
19.89,216.833,18.995,99.792
19.93,217.233,18.994,99.79
19.97,217.634,18.994,99.789
20.01,218.034,18.994,99.787
20.05,218.434,18.993,99.785
20.09,218.834,18.993,99.784
20.13,219.234,18.993,99.782
20.17,219.634,18.992,99.781
20.21,220.034,18.992,99.779
20.25,220.434,18.992,99.777
20.29,220.834,18.991,99.776
20.33,221.234,18.991,99.774
20.37,221.634,18.991,99.772
20.41,222.034,18.991,99.771
20.45,222.434,18.99,99.769
20.49,222.834,18.99,99.767
20.53,223.235,18.99,99.766
20.57,223.635,18.989,99.764
20.61,224.035,18.989,99.763
20.65,224.435,18.989,99.761
20.69,224.835,18.988,99.759
20.73,225.235,18.988,99.758
20.77,225.635,18.988,99.756
20.81,226.035,18.987,99.755
20.85,226.435,18.987,99.753
20.89,226.835,18.987,99.751
20.93,227.235,18.987,99.75
20.97,227.635,18.986,99.748
21.01,228.035,18.986,99.746
21.05,228.435,18.986,99.745
21.09,228.836,18.985,99.743
21.13,229.236,18.985,99.742
21.17,229.636,18.985,99.74
21.21,230.036,18.984,99.738
21.25,230.436,18.984,99.737
21.29,230.836,18.984,99.735
21.33,231.236,18.983,99.733
21.37,231.636,18.983,99.732
21.41,232.036,18.983,99.73
21.45,232.436,18.982,99.729
21.49,232.836,18.982,99.727
21.53,233.236,18.982,99.725
21.57,233.636,18.982,99.723
21.61,234.036,18.981,99.722
21.65,234.437,18.981,99.72
21.69,234.837,18.981,99.718
21.73,235.237,18.98,99.717
21.78,235.637,18.98,99.715
21.82,236.037,18.98,99.714
21.86,236.437,18.979,99.712
21.89,236.837,18.979,99.71
21.93,237.237,18.979,99.709
21.98,237.637,18.978,99.707
22.02,238.037,18.978,99.705
22.06,238.437,18.978,99.704
22.09,238.837,18.977,99.702
22.13,239.237,18.977,99.7
22.18,239.637,18.977,99.699
22.22,240.038,18.976,99.697
22.26,240.438,18.976,99.695
22.29,240.838,18.976,99.694
22.33,241.238,18.976,99.692
22.38,241.638,18.975,99.69
22.42,242.038,18.975,99.689
22.46,242.438,18.975,99.687
22.49,242.838,18.974,99.685
22.53,243.238,18.974,99.684
22.58,243.638,18.974,99.682
22.62,244.038,18.973,99.68
22.66,244.438,18.973,99.679
22.69,244.838,18.973,99.677
22.73,245.238,18.972,99.675
22.78,245.639,18.972,99.674
22.82,246.039,18.972,99.672
22.86,246.439,18.971,99.67
22.89,246.839,18.971,99.669
22.93,247.239,18.971,99.667
22.98,247.639,18.97,99.666
23.02,248.039,18.97,99.664
23.06,248.439,18.97,99.662
23.09,248.839,18.97,99.661
23.13,249.239,18.969,99.659
23.18,249.639,18.969,99.657
23.22,250.039,18.969,99.656
23.26,250.439,18.968,99.654
23.29,250.839,18.968,99.652
23.33,251.24,18.968,99.65
23.38,251.64,18.967,99.649
23.42,252.04,18.967,99.647
23.46,252.44,18.967,99.645
23.49,252.84,18.966,99.644
23.53,253.24,18.966,99.642
23.58,253.64,18.966,99.64
23.62,254.04,18.965,99.639
23.66,254.44,18.965,99.637
23.7,254.84,18.965,99.635
23.74,255.24,18.964,99.634
23.78,255.64,18.964,99.632
23.82,256.04,18.964,99.63
23.86,256.44,18.963,99.629
23.9,256.841,18.963,99.627
23.94,257.241,18.963,99.625
23.98,257.641,18.962,99.623
24.02,258.041,18.962,99.622
24.06,258.441,18.962,99.62
24.1,258.841,18.961,99.618
24.14,259.241,18.961,99.617
24.18,259.641,18.961,99.615
24.22,260.041,18.961,99.613
24.26,260.441,18.96,99.611
24.3,260.841,18.96,99.61
24.34,261.241,18.96,99.608
24.38,261.641,18.959,99.606
24.42,262.041,18.959,99.605
24.46,262.442,18.959,99.603
24.5,262.842,18.958,99.601
24.54,263.242,18.958,99.599
24.58,263.642,18.958,99.598
24.62,264.042,18.957,99.596
24.66,264.442,18.957,99.594
24.7,264.842,18.957,99.592
24.74,265.242,18.956,99.591
24.78,265.642,18.956,99.589
24.82,266.042,18.956,99.587
24.86,266.442,18.955,99.586
24.9,266.842,18.955,99.584
24.94,267.242,18.955,99.582
24.98,267.642,18.954,99.581
25.02,268.043,18.954,99.579
25.06,268.443,18.954,99.577
25.1,268.843,18.953,99.575
25.14,269.243,18.953,99.574
25.18,269.643,18.953,99.572
25.22,270.043,18.952,99.57
25.26,270.443,18.952,99.568
25.3,270.843,18.952,99.566
25.34,271.243,18.951,99.565
25.38,271.643,18.951,99.563
25.42,272.043,18.951,99.561
25.46,272.443,18.95,99.559
25.5,272.843,18.95,99.558
25.54,273.243,18.95,99.556
25.58,273.644,18.949,99.554
25.62,274.044,18.949,99.552
25.66,274.444,18.949,99.55
25.7,274.844,18.948,99.549
25.74,275.244,18.948,99.547
25.78,275.644,18.948,99.545
25.82,276.044,18.947,99.543
25.86,276.444,18.947,99.541
25.9,276.844,18.947,99.54
25.94,277.244,18.946,99.538
25.98,277.644,18.946,99.536
26.02,278.044,18.946,99.534
26.06,278.444,18.945,99.532
26.1,278.844,18.945,99.531
26.14,279.245,18.944,99.529
26.18,279.645,18.944,99.527
26.22,280.045,18.944,99.525
26.26,280.445,18.943,99.523
26.3,280.845,18.943,99.521
26.34,281.245,18.943,99.52
26.38,281.645,18.942,99.518
26.42,282.045,18.942,99.516
26.46,282.445,18.942,99.514
26.5,282.845,18.941,99.512
26.54,283.245,18.941,99.51
26.58,283.645,18.941,99.508
26.62,284.045,18.94,99.507
26.66,284.445,18.94,99.505
26.7,284.846,18.94,99.503
26.74,285.246,18.939,99.501
26.78,285.646,18.939,99.499
26.82,286.046,18.938,99.497
26.86,286.446,18.938,99.496
26.9,286.846,18.938,99.494
26.94,287.246,18.937,99.492
26.98,287.646,18.937,99.49
27.02,288.046,18.937,99.488
27.06,288.446,18.936,99.486
27.1,288.846,18.936,99.484
27.14,289.246,18.936,99.483
27.18,289.646,18.935,99.481
27.22,290.046,18.935,99.479
27.26,290.447,18.935,99.477
27.3,290.847,18.934,99.475
27.34,291.247,18.934,99.473
27.38,291.647,18.933,99.471
27.42,292.047,18.933,99.469
27.46,292.447,18.933,99.467
27.5,292.847,18.932,99.466
27.54,293.247,18.932,99.464
27.58,293.647,18.932,99.462
27.62,294.047,18.931,99.46
27.66,294.447,18.931,99.458
27.7,294.847,18.931,99.456
27.74,295.247,18.93,99.454
27.78,295.647,18.93,99.452
27.82,296.048,18.93,99.451
27.86,296.448,18.929,99.449
27.9,296.848,18.929,99.447
27.94,297.248,18.929,99.445
27.98,297.648,18.928,99.443
28.02,298.048,18.928,99.441
28.06,298.448,18.927,99.439
28.1,298.848,18.927,99.437
28.14,299.248,18.927,99.435
28.18,299.648,18.926,99.433
28.22,300.048,18.926,99.432
28.26,300.448,18.926,99.43
28.3,300.848,18.925,99.428
28.34,301.248,18.925,99.426
28.38,301.649,18.925,99.424
28.42,302.049,18.924,99.422
28.46,302.449,18.924,99.42
28.5,302.849,18.923,99.418
28.54,303.249,18.923,99.416
28.58,303.649,18.923,99.415
28.62,304.049,18.922,99.413
28.66,304.449,18.922,99.411
28.7,304.849,18.922,99.409
28.74,305.249,18.921,99.407
28.78,305.649,18.921,99.405
28.82,306.049,18.921,99.403
28.86,306.449,18.92,99.401
28.9,306.849,18.92,99.399
28.94,307.25,18.919,99.397
28.98,307.65,18.919,99.395
29.02,308.05,18.919,99.393
29.06,308.45,18.918,99.391
29.1,308.85,18.918,99.389
29.14,309.25,18.918,99.387
29.18,309.65,18.917,99.385
29.22,310.05,18.917,99.383
29.26,310.45,18.916,99.381
29.3,310.85,18.916,99.379
29.34,311.25,18.916,99.377
29.38,311.65,18.915,99.375
29.42,312.05,18.915,99.374
29.46,312.45,18.915,99.372
29.5,312.851,18.914,99.37
29.54,313.251,18.914,99.368
29.58,313.651,18.913,99.366
29.62,314.051,18.913,99.364
29.66,314.451,18.913,99.362
29.7,314.851,18.912,99.36
29.74,315.251,18.912,99.358
29.78,315.651,18.912,99.356
29.82,316.051,18.911,99.354
29.86,316.451,18.911,99.352
29.9,316.851,18.91,99.35
29.94,317.251,18.91,99.348
29.98,317.651,18.91,99.346
30.02,318.051,18.909,99.344
30.06,318.452,18.909,99.342
30.1,318.852,18.909,99.34
30.14,319.252,18.908,99.338
30.18,319.652,18.908,99.336
30.22,320.052,18.907,99.334
30.26,320.452,18.907,99.332
30.3,320.852,18.907,99.33
30.34,321.252,18.906,99.328
30.38,321.652,18.906,99.326
30.42,322.052,18.905,99.324
30.46,322.452,18.905,99.322
30.5,322.852,18.905,99.32
30.54,323.252,18.904,99.318
30.58,323.652,18.904,99.316
30.62,324.053,18.904,99.314
30.66,324.453,18.903,99.312
30.7,324.853,18.903,99.31
30.74,325.253,18.902,99.308
30.78,325.653,18.902,99.306
30.82,326.053,18.902,99.304
30.86,326.453,18.901,99.302
30.9,326.853,18.901,99.3
30.94,327.253,18.9,99.298
30.98,327.653,18.9,99.296
31.02,328.053,18.9,99.294
31.06,328.453,18.899,99.291
31.1,328.853,18.899,99.289
31.14,329.253,18.899,99.287
31.18,329.654,18.898,99.285
31.22,330.054,18.898,99.283
31.26,330.454,18.897,99.281
31.3,330.854,18.897,99.279
31.34,331.254,18.897,99.277
31.38,331.654,18.896,99.275
31.42,332.054,18.896,99.273
31.46,332.454,18.895,99.271
31.5,332.854,18.895,99.269
31.54,333.254,18.895,99.267
31.58,333.654,18.894,99.264
31.62,334.054,18.894,99.262
31.66,334.454,18.893,99.26
31.7,334.854,18.893,99.258
31.74,335.255,18.893,99.256
31.78,335.655,18.892,99.254
31.82,336.055,18.892,99.252
31.86,336.455,18.891,99.25
31.9,336.855,18.891,99.248
31.94,337.255,18.891,99.246
31.98,337.655,18.89,99.244
32.02,338.055,18.89,99.241
32.06,338.455,18.889,99.239
32.1,338.855,18.889,99.237
32.14,339.255,18.889,99.235
32.18,339.655,18.888,99.233
32.22,340.055,18.888,99.231
32.26,340.455,18.887,99.229
32.3,340.856,18.887,99.227
32.34,341.256,18.887,99.224
32.38,341.656,18.886,99.222
32.42,342.056,18.886,99.22
32.46,342.456,18.885,99.218
32.5,342.856,18.885,99.216
32.54,343.256,18.884,99.214
32.58,343.656,18.884,99.212
32.62,344.056,18.884,99.209
32.66,344.456,18.883,99.207
32.7,344.856,18.883,99.205
32.74,345.256,18.882,99.203
32.78,345.656,18.882,99.201
32.82,346.056,18.882,99.199
32.86,346.457,18.881,99.196
32.9,346.857,18.881,99.194
32.94,347.257,18.88,99.192
32.98,347.657,18.88,99.19
33.02,348.057,18.88,99.188
33.06,348.457,18.879,99.186
33.1,348.857,18.879,99.183
33.14,349.257,18.878,99.181
33.18,349.657,18.878,99.179
33.22,350.057,18.877,99.177
33.26,350.457,18.877,99.175
33.3,350.857,18.877,99.172
33.34,351.257,18.876,99.17
33.38,351.657,18.876,99.168
33.42,352.058,18.875,99.166
33.46,352.458,18.875,99.164
33.5,352.858,18.875,99.161
33.54,353.258,18.874,99.159
33.58,353.658,18.874,99.157
33.62,354.058,18.873,99.155
33.66,354.458,18.873,99.152
33.7,354.858,18.872,99.15
33.74,355.258,18.872,99.148
33.78,355.658,18.871,99.145
33.82,356.058,18.871,99.143
33.86,356.458,18.871,99.14
33.9,356.858,18.87,99.138
33.94,357.258,18.87,99.135
33.98,357.659,18.869,99.133
34.02,358.059,18.869,99.13
34.06,358.459,18.868,99.128
34.1,358.859,18.868,99.125
34.14,359.259,18.867,99.123
34.18,359.659,18.867,99.12
34.22,360.059,18.866,99.118
34.26,360.459,18.866,99.115
34.3,360.859,18.865,99.113
34.34,361.259,18.865,99.11
34.38,361.659,18.864,99.107
34.42,362.059,18.864,99.105
34.46,362.459,18.863,99.102
34.5,362.859,18.863,99.099
34.54,363.26,18.862,99.096
34.58,363.66,18.862,99.094
34.62,364.06,18.861,99.091
34.66,364.46,18.861,99.088
34.7,364.86,18.86,99.085
34.74,365.26,18.859,99.082
34.78,365.66,18.859,99.079
34.82,366.06,18.858,99.076
34.86,366.46,18.858,99.073
34.9,366.86,18.857,99.07
34.94,367.26,18.856,99.067
34.98,367.66,18.856,99.063
35.02,368.06,18.855,99.06
35.06,368.46,18.855,99.057
35.1,368.861,18.854,99.054
35.14,369.261,18.853,99.051
35.18,369.661,18.853,99.047
35.22,370.061,18.852,99.044
35.26,370.461,18.852,99.04
35.3,370.861,18.851,99.037
35.34,371.261,18.85,99.033
35.38,371.661,18.85,99.03
35.42,372.061,18.849,99.026
35.46,372.461,18.848,99.023
35.5,372.861,18.847,99.019
35.54,373.261,18.847,99.015
35.58,373.661,18.846,99.012
35.62,374.061,18.845,99.008
35.66,374.462,18.845,99.004
35.7,374.862,18.844,99
35.74,375.262,18.843,98.996
35.78,375.662,18.842,98.992
35.82,376.062,18.841,98.988
35.86,376.462,18.841,98.984
35.9,376.862,18.84,98.979
35.94,377.262,18.839,98.975
35.98,377.662,18.838,98.97
36.02,378.062,18.837,98.966
36.06,378.462,18.836,98.961
36.1,378.862,18.836,98.957
36.14,379.262,18.835,98.952
36.18,379.662,18.834,98.947
36.22,380.063,18.833,98.943
36.26,380.463,18.832,98.938
36.3,380.863,18.831,98.933
36.34,381.263,18.83,98.928
36.38,381.663,18.829,98.922
36.42,382.063,18.828,98.917
36.46,382.463,18.827,98.912
36.5,382.863,18.826,98.906
36.54,383.263,18.825,98.901
36.58,383.663,18.824,98.895
36.62,384.063,18.823,98.889
36.66,384.463,18.822,98.883
36.7,384.863,18.82,98.877
36.74,385.263,18.819,98.871
36.78,385.664,18.818,98.865
36.82,386.064,18.817,98.858
36.86,386.464,18.816,98.852
36.9,386.864,18.814,98.845
36.94,387.264,18.813,98.838
36.98,387.664,18.812,98.831
37.02,388.064,18.81,98.824
37.06,388.464,18.809,98.817
37.1,388.864,18.808,98.81
37.14,389.264,18.806,98.802
37.18,389.664,18.805,98.795
37.22,390.064,18.803,98.787
37.26,390.464,18.802,98.779
37.3,390.864,18.8,98.771
37.34,391.265,18.799,98.763
37.38,391.665,18.797,98.754
37.42,392.065,18.795,98.746
37.46,392.465,18.794,98.737
37.5,392.865,18.792,98.728
37.54,393.265,18.79,98.719
37.58,393.665,18.789,98.71
37.62,394.065,18.787,98.701
37.66,394.465,18.785,98.691
37.7,394.865,18.783,98.681
37.74,395.265,18.781,98.671
37.78,395.665,18.779,98.661
37.82,396.065,18.777,98.651
37.86,396.465,18.775,98.641
37.9,396.866,18.773,98.63
37.94,397.266,18.771,98.619
37.98,397.666,18.769,98.608
38.02,398.066,18.767,98.597
38.06,398.466,18.765,98.585
38.1,398.866,18.763,98.573
38.14,399.266,18.76,98.561
38.18,399.666,18.758,98.549
38.22,400.066,18.756,98.537
38.26,400.466,18.753,98.524
38.3,400.866,18.751,98.512
38.34,401.266,18.748,98.498
38.38,401.666,18.746,98.485
38.42,402.066,18.743,98.471
38.46,402.467,18.741,98.457
38.5,402.867,18.738,98.443
38.54,403.267,18.735,98.429
38.58,403.667,18.732,98.414
38.62,404.067,18.729,98.399
38.66,404.467,18.727,98.384
38.7,404.867,18.724,98.368
38.74,405.267,18.721,98.352
38.78,405.667,18.717,98.336
38.82,406.067,18.714,98.319
38.86,406.467,18.711,98.302
38.9,406.867,18.708,98.285
38.94,407.267,18.704,98.267
38.98,407.667,18.701,98.249
39.02,408.068,18.697,98.23
39.06,408.468,18.694,98.211
39.1,408.868,18.69,98.192
39.14,409.268,18.686,98.172
39.18,409.668,18.682,98.152
39.22,410.068,18.678,98.131
39.26,410.468,18.674,98.11
39.3,410.868,18.67,98.088
39.34,411.268,18.666,98.066
39.38,411.668,18.662,98.042
39.42,412.068,18.657,98.017
39.46,412.468,18.652,97.991
39.5,412.868,18.646,97.962
39.54,413.268,18.641,97.933
39.58,413.669,18.635,97.902
39.62,414.069,18.629,97.871
39.66,414.469,18.622,97.837
39.7,414.869,18.616,97.802
39.74,415.269,18.609,97.767
39.78,415.669,18.602,97.73
39.82,416.069,18.595,97.693
39.86,416.469,18.588,97.656
39.9,416.869,18.581,97.617
39.94,417.269,18.573,97.579
39.98,417.669,18.566,97.539
40.02,418.069,18.558,97.499
40.06,418.469,18.55,97.457
40.1,418.869,18.542,97.415
40.14,419.27,18.534,97.372
40.18,419.67,18.526,97.328
40.22,420.07,18.517,97.282
40.26,420.47,18.508,97.236
40.3,420.87,18.499,97.189
40.34,421.27,18.49,97.141
40.38,421.67,18.48,97.091
40.42,422.07,18.47,97.038
40.46,422.47,18.46,96.985
40.5,422.87,18.45,96.932
40.54,423.27,18.44,96.879
40.58,423.67,18.429,96.822
40.62,424.07,18.418,96.764
40.66,424.47,18.407,96.703
40.7,424.871,18.395,96.642
40.74,425.271,18.383,96.581
40.78,425.671,18.371,96.517
40.82,426.071,18.359,96.452
40.86,426.471,18.347,96.388
40.9,426.871,18.334,96.319
40.94,427.271,18.32,96.249
40.98,427.671,18.306,96.176
41.02,428.071,18.292,96.102
41.06,428.471,18.278,96.026
41.1,428.871,18.263,95.948
41.14,429.271,18.247,95.865
41.18,429.671,18.231,95.783
41.22,430.071,18.215,95.694
41.26,430.472,18.197,95.601
41.3,430.872,18.18,95.51
41.34,431.272,18.161,95.413
41.38,431.672,18.142,95.314
41.42,432.072,18.123,95.213
41.46,432.472,18.103,95.108
41.5,432.872,18.082,94.999
41.54,433.272,18.061,94.888
41.58,433.672,18.04,94.774
41.62,434.072,18.017,94.657
41.66,434.472,17.994,94.536
41.7,434.872,17.97,94.412
41.74,435.272,17.946,94.285
41.78,435.672,17.921,94.154
41.82,436.073,17.896,94.02
41.86,436.473,17.869,93.879
41.9,436.873,17.841,93.733
41.94,437.273,17.813,93.584
41.98,437.673,17.784,93.431
42.02,438.073,17.754,93.275
42.06,438.473,17.723,93.113
42.1,438.873,17.692,92.947
42.14,439.273,17.659,92.776
42.18,439.673,17.624,92.591
42.22,440.073,17.589,92.407
42.26,440.473,17.552,92.214
42.3,440.873,17.514,92.014
42.34,441.273,17.474,91.805
42.38,441.674,17.433,91.586
42.42,442.074,17.387,91.348
42.46,442.474,17.341,91.105
42.5,442.874,17.296,90.868
42.54,443.274,17.248,90.618
42.58,443.674,17.2,90.364
42.62,444.074,17.151,90.104
42.66,444.474,17.097,89.822
42.7,444.874,17.045,89.547
42.74,445.274,16.99,89.259
42.78,445.674,16.932,88.958
42.82,446.074,16.874,88.649
42.86,446.474,16.814,88.337
42.9,446.874,16.753,88.017
42.94,447.275,16.69,87.687
42.98,447.675,16.623,87.335
43.02,448.075,16.555,86.978
43.06,448.475,16.487,86.615
43.1,448.875,16.415,86.24
43.14,449.275,16.34,85.847
43.18,449.675,16.261,85.43
43.22,450.075,16.179,85
43.26,450.475,16.098,84.572
43.3,450.875,16.015,84.139
43.34,451.275,15.926,83.671
43.38,451.675,15.835,83.193
43.42,452.075,15.744,82.715
43.46,452.475,15.649,82.214
43.5,452.876,15.548,81.686
43.54,453.276,15.444,81.141
43.58,453.676,15.339,80.587
43.63,454.076,15.226,79.995
43.66,454.476,15.115,79.412
43.71,454.876,15,78.808
43.74,455.276,14.88,78.177
43.79,455.676,14.755,77.519
43.83,456.076,14.626,76.842
43.86,456.476,14.495,76.15
43.91,456.876,14.359,75.436
43.94,457.276,14.222,74.716
43.99,457.676,14.076,73.95
44.03,458.076,13.926,73.163
44.06,458.477,13.772,72.354
44.11,458.877,13.619,71.552
44.14,459.277,13.462,70.724
44.19,459.677,13.297,69.859
44.23,460.077,13.126,68.959
44.26,460.477,12.954,68.054
44.31,460.877,12.774,67.109
44.34,461.277,12.591,66.15
44.39,461.677,12.404,65.168
44.43,462.077,12.196,64.072
44.46,462.477,11.998,63.034
44.51,462.877,11.797,61.978
44.54,463.277,11.595,60.914
44.59,463.677,11.382,59.798
44.63,464.078,11.153,58.596
44.66,464.478,10.932,57.431
44.71,464.878,10.706,56.245
44.74,465.278,10.474,55.028
44.79,465.678,10.243,53.814
44.83,466.078,9.999,52.53
44.86,466.478,9.757,51.262
44.91,466.878,9.507,49.95
44.94,467.278,9.258,48.641
44.99,467.678,9.006,47.314
45.03,468.078,8.748,45.959
45.06,468.478,8.49,44.604
45.11,468.878,8.223,43.201
45.14,469.278,7.956,41.799
45.19,469.679,7.688,40.391
45.23,470.079,7.414,38.95
45.26,470.479,7.137,37.494
45.31,470.879,6.854,36.01
45.34,471.279,6.57,34.518
45.39,471.679,6.286,33.023
45.43,472.079,6.005,31.55
45.46,472.479,5.717,30.034
45.51,472.879,5.425,28.501
45.54,473.279,5.142,27.014
45.59,473.679,4.853,25.495
45.63,474.079,4.568,23.999
45.66,474.479,4.293,22.556
45.71,474.879,4.025,21.146
45.74,475.28,3.764,19.774
45.79,475.68,3.504,18.406
45.83,476.08,3.266,17.159
45.86,476.48,3.027,15.906
45.91,476.88,2.792,14.671
45.94,477.28,2.571,13.508
45.98,477.68,2.347,12.332
46.02,478.08,2.138,11.233
46.06,478.48,1.937,10.174
46.1,478.88,1.742,9.154
46.14,479.28,1.569,8.243
46.18,479.68,1.407,7.391
46.22,480.08,1.257,6.603
46.26,480.48,1.122,5.895
46.3,480.881,0.9980000,5.245
46.34,481.281,0.8860000,4.654
46.38,481.681,0.7840000,4.119
46.42,482.081,0.6970000,3.66
46.46,482.481,0.6160000,3.234
46.5,482.881,0.5450000,2.863
46.54,483.281,0.4840000,2.542
46.58,483.681,0.4340000,2.279
46.62,484.081,0.3900000,2.048
46.66,484.481,0.3530000,1.856
46.7,484.881,0.3230000,1.699
46.74,485.281,0.3000000,1.578
46.78,485.681,0.2810000,1.477
46.82,486.081,0.2660000,1.4
46.86,486.482,0.2550000,1.342
46.9,486.882,0.2480000,1.3
46.94,487.282,0.2420000,1.272
46.98,487.682,0.2390000,1.254
47.02,488.082,0.2360000,1.242
47.06,488.482,0.2340000,1.229
47.1,488.882,0.2320000,1.218
47.14,489.282,0.2300000,1.207
47.18,489.682,0.2280000,1.198
47.22,490.082,0.2260000,1.19
47.26,490.482,0.2250000,1.182
47.3,490.882,0.2240000,1.176
47.34,491.282,0.2230000,1.171
47.38,491.682,0.2220000,1.167
47.42,492.083,0.2220000,1.164
47.46,492.483,0.2210000,1.161
47.5,492.883,0.2200000,1.158
47.54,493.283,0.2200000,1.156
47.58,493.683,0.2200000,1.155
47.62,494.083,0.2200000,1.153
47.66,494.483,0.2190000,1.152
47.7,494.883,0.2190000,1.151
47.74,495.283,0.2190000,1.15
47.78,495.683,0.2190000,1.15
47.82,496.083,0.2190000,1.149
47.86,496.483,0.2190000,1.149
47.9,496.883,0.2190000,1.148
47.94,497.283,0.2180000,1.148
47.98,497.684,0.2180000,1.147
48.02,498.084,0.2180000,1.147
48.06,498.484,0.2180000,1.147
48.1,498.884,0.2180000,1.147
48.14,499.284,0.2180000,1.146
48.18,499.684,0.2180000,1.146
48.22,500.084,0.2180000,1.146
48.26,500.484,0.2180000,1.146
48.3,500.884,0.2180000,1.146
48.34,501.284,0.2180000,1.146
48.38,501.684,0.2180000,1.146
48.42,502.084,0.2180000,1.146
48.46,502.484,0.2180000,1.146
48.5,502.884,0.2180000,1.146
48.54,503.285,0.2180000,1.146
48.58,503.685,0.2180000,1.146
48.62,504.085,0.2180000,1.145
48.66,504.485,0.2180000,1.145
48.7,504.885,0.2180000,1.145
48.74,505.285,0.2180000,1.145
48.78,505.685,0.2180000,1.145
48.82,506.085,0.2180000,1.145
48.86,506.485,0.2180000,1.145
48.9,506.885,0.2180000,1.145
48.94,507.285,0.2180000,1.145
48.98,507.685,0.2180000,1.145
49.02,508.085,0.2180000,1.145
49.06,508.485,0.2180000,1.145
49.1,508.886,0.2180000,1.145
49.14,509.286,0.2180000,1.145
49.18,509.686,0.2180000,1.145
49.22,510.086,0.2180000,1.145
49.26,510.486,0.2180000,1.145
49.3,510.886,0.2180000,1.144
49.34,511.286,0.2180000,1.144
49.38,511.686,0.2180000,1.144
49.42,512.086,0.2180000,1.144
49.46,512.486,0.2180000,1.144
49.5,512.886,0.2180000,1.144
49.54,513.286,0.2180000,1.144
49.58,513.686,0.2180000,1.144
49.62,514.086,0.2180000,1.144
49.66,514.487,0.2180000,1.144
49.7,514.887,0.2180000,1.144
49.74,515.287,0.2180000,1.144
49.78,515.687,0.2180000,1.144
49.82,516.087,0.2180000,1.144
49.86,516.487,0.2180000,1.143
49.9,516.887,0.2180000,1.143
49.94,517.287,0.2180000,1.143
49.98,517.687,0.2180000,1.143
50.02,518.087,0.2180000,1.143
50.06,518.487,0.2180000,1.143
50.1,518.887,0.2180000,1.143
50.14,519.287,0.2180000,1.143
50.18,519.687,0.2180000,1.143
50.22,520.088,0.2180000,1.143
50.26,520.488,0.2180000,1.143
50.3,520.888,0.2180000,1.143
50.34,521.288,0.2170000,1.143
50.38,521.688,0.2170000,1.143
50.42,522.088,0.2170000,1.143
50.46,522.488,0.2170000,1.143
50.5,522.888,0.2170000,1.142
50.54,523.288,0.2170000,1.142
50.58,523.688,0.2170000,1.142
50.62,524.088,0.2170000,1.142
50.66,524.488,0.2170000,1.142
50.7,524.888,0.2170000,1.142
50.74,525.288,0.2170000,1.142
50.78,525.689,0.2170000,1.142
50.82,526.089,0.2170000,1.142
50.86,526.489,0.2170000,1.142
50.9,526.889,0.2170000,1.142
50.94,527.289,0.2170000,1.142
50.98,527.689,0.2170000,1.142
51.02,528.089,0.2170000,1.142
51.06,528.489,0.2170000,1.142
51.1,528.889,0.2170000,1.142
51.14,529.289,0.2170000,1.142
51.18,529.689,0.2170000,1.142
51.22,530.089,0.2170000,1.141
51.26,530.489,0.2170000,1.141
51.3,530.889,0.2170000,1.141
51.34,531.29,0.2170000,1.141
51.38,531.69,0.2170000,1.141
51.42,532.09,0.2170000,1.141
51.46,532.49,0.2170000,1.141
51.5,532.89,0.2170000,1.141
51.54,533.29,0.2170000,1.141
51.58,533.69,0.2170000,1.141
51.62,534.09,0.2170000,1.141
51.66,534.49,0.2170000,1.141
51.7,534.89,0.2170000,1.141
51.74,535.29,0.2170000,1.141
51.78,535.69,0.2170000,1.141
51.82,536.09,0.2170000,1.141
51.86,536.49,0.2170000,1.141
51.9,536.891,0.2170000,1.141
51.94,537.291,0.2170000,1.141
51.98,537.691,0.2170000,1.141
52.02,538.091,0.2170000,1.141
52.06,538.491,0.2170000,1.14
52.1,538.891,0.2170000,1.14
52.14,539.291,0.2170000,1.14
52.18,539.691,0.2170000,1.14
52.22,540.091,0.2170000,1.14
52.26,540.491,0.2170000,1.14
52.3,540.891,0.2170000,1.14
52.34,541.291,0.2170000,1.14
52.38,541.691,0.2170000,1.14
52.42,542.091,0.2170000,1.14
52.46,542.492,0.2170000,1.14
52.5,542.892,0.2170000,1.14
52.54,543.292,0.2170000,1.14
52.58,543.692,0.2170000,1.14
52.62,544.092,0.2170000,1.14
52.66,544.492,0.2170000,1.14
52.7,544.892,0.2170000,1.139
52.74,545.292,0.2170000,1.139
52.78,545.692,0.2170000,1.139
52.82,546.092,0.2170000,1.139
52.86,546.492,0.2170000,1.139
52.9,546.892,0.2170000,1.139
52.94,547.292,0.2170000,1.139
52.98,547.692,0.2170000,1.139
53.02,548.093,0.2170000,1.139
53.06,548.493,0.2170000,1.139
53.1,548.893,0.2170000,1.139
53.14,549.293,0.2170000,1.138
53.18,549.693,0.2170000,1.138
53.22,550.093,0.2170000,1.138
53.26,550.493,0.2170000,1.138
53.3,550.893,0.2170000,1.138
53.34,551.293,0.2170000,1.138
53.38,551.693,0.2170000,1.138
53.42,552.093,0.2170000,1.138
53.46,552.493,0.2170000,1.138
53.5,552.893,0.2170000,1.138
53.54,553.293,0.2170000,1.137
53.58,553.694,0.2160000,1.137
53.62,554.094,0.2160000,1.137
53.66,554.494,0.2160000,1.137
53.7,554.894,0.2160000,1.137
53.74,555.294,0.2160000,1.137
53.78,555.694,0.2160000,1.137
53.82,556.094,0.2160000,1.137
53.86,556.494,0.2160000,1.137
53.9,556.894,0.2160000,1.136
53.94,557.294,0.2160000,1.136
53.98,557.694,0.2160000,1.136
54.02,558.094,0.2160000,1.136
54.06,558.494,0.2160000,1.136
54.1,558.894,0.2160000,1.135
54.14,559.295,0.2160000,1.135
54.18,559.695,0.2160000,1.135
54.22,560.095,0.2160000,1.135
54.26,560.495,0.2160000,1.135
54.3,560.895,0.2160000,1.135
54.34,561.295,0.2160000,1.134
54.38,561.695,0.2160000,1.134
54.42,562.095,0.2160000,1.134
54.46,562.495,0.2160000,1.134
54.5,562.895,0.2160000,1.134
54.54,563.295,0.2160000,1.134
54.58,563.695,0.2160000,1.134
54.62,564.095,0.2160000,1.133
54.66,564.495,0.2160000,1.133
54.7,564.896,0.2160000,1.133
54.74,565.296,0.2160000,1.133
54.78,565.696,0.2160000,1.133
54.82,566.096,0.2160000,1.132
54.86,566.496,0.2150000,1.132
54.9,566.896,0.2150000,1.132
54.94,567.296,0.2150000,1.132
54.98,567.696,0.2150000,1.132
55.02,568.096,0.2150000,1.131
55.06,568.496,0.2150000,1.131
55.1,568.896,0.2150000,1.131
55.14,569.296,0.2150000,1.131
55.18,569.696,0.2150000,1.13
55.22,570.096,0.2150000,1.13
55.26,570.497,0.2150000,1.13
55.3,570.897,0.2150000,1.13
55.34,571.297,0.2150000,1.129
55.38,571.697,0.2150000,1.129
55.42,572.097,0.2150000,1.129
55.46,572.497,0.2150000,1.128
55.5,572.897,0.2150000,1.128
55.54,573.297,0.2150000,1.128
55.58,573.697,0.2150000,1.127
55.62,574.097,0.2150000,1.127
55.66,574.497,0.2140000,1.127
55.7,574.897,0.2140000,1.126
55.74,575.297,0.2140000,1.126
55.78,575.697,0.2140000,1.125
55.82,576.098,0.2140000,1.125
55.86,576.498,0.2140000,1.125
55.9,576.898,0.2140000,1.124
55.94,577.298,0.2140000,1.124
55.98,577.698,0.2140000,1.124
56.02,578.098,0.2140000,1.123
56.06,578.498,0.2140000,1.123
56.1,578.898,0.2140000,1.122
56.14,579.298,0.2140000,1.122
56.18,579.698,0.2130000,1.121
56.22,580.098,0.2130000,1.121
56.26,580.498,0.2130000,1.12
56.3,580.898,0.2130000,1.12
56.34,581.298,0.2130000,1.119
56.38,581.699,0.2130000,1.119
56.42,582.099,0.2130000,1.118
56.46,582.499,0.2130000,1.118
56.5,582.899,0.2130000,1.117
56.54,583.299,0.2130000,1.117
56.58,583.699,0.2130000,1.116
56.62,584.099,0.2120000,1.116
56.66,584.499,0.2120000,1.115
56.7,584.899,0.2120000,1.115
56.74,585.299,0.2120000,1.114
56.78,585.699,0.2120000,1.114
56.82,586.099,0.2120000,1.113
56.86,586.499,0.2120000,1.112
56.9,586.899,0.2120000,1.112
56.94,587.3,0.2120000,1.111
56.98,587.7,0.2110000,1.111
57.02,588.1,0.2110000,1.11
57.06,588.5,0.2110000,1.109
57.1,588.9,0.2110000,1.109
57.14,589.3,0.2110000,1.108
57.18,589.7,0.2110000,1.108
57.21,590,0.2110000,1.107