File: R/rHDPE_App/app/www/Output/TGA/Condensed_Data/Resin1_1_.csv
0.6700000,30,14.149,100.018,0.0084438
0.7500000,30.5001,14.15,100.021,0.0061382
0.8100000,31.0002,14.15,100.023,0.0048252
0.8800000,31.5003,14.15,100.026,0.0050952
0.9400000,32.0004,14.15,100.027,0.0036468
1,32.5004,14.151,100.029,0.0035093
1.06,33.0005,14.151,100.03,0.0035550
1.12,33.5006,14.151,100.032,0.0021782
1.18,34.0007,14.151,100.033,0.0016806
1.23,34.5008,14.151,100.034,0.0017690
1.29,35.0009,14.151,100.035,0.0013930
1.34,35.501,14.152,100.036,0.0013314
1.4,36.0011,14.152,100.036,0.0018823
1.46,36.5012,14.152,100.037,0.0014155
1.51,37.0013,14.152,100.038,0.0019603
1.57,37.5013,14.152,100.039,0.0007001
1.62,38.0014,14.152,100.039,0.0016406
1.68,38.5015,14.152,100.04,0.0014856
1.73,39.0016,14.152,100.041,0.0018236
1.78,39.5017,14.152,100.042,0.0013259
1.84,40.0018,14.153,100.042,0.0011753
1.89,40.5019,14.153,100.043,0.0012207
1.94,41.002,14.153,100.043,0.0008281
2,41.5021,14.153,100.044,0.0007776
2.05,42.0021,14.153,100.045,0.0009221
2.1,42.5022,14.153,100.045,0.0008240
2.16,43.0023,14.153,100.046,0.0012577
2.21,43.5024,14.153,100.046,0.0014972
2.26,44.0025,14.153,100.047,0.0009642
2.31,44.5026,14.153,100.048,0.0012519
2.36,45.0027,14.153,100.048,0.0016347
2.42,45.5028,14.153,100.049,0.0011998
2.47,46.0029,14.154,100.05,0.0017722
2.52,46.5029,14.154,100.05,0.0014818
2.58,47.003,14.154,100.051,0.0013363
2.63,47.5031,14.154,100.051,0.0014296
2.68,48.0032,14.154,100.052,0.0016170
2.73,48.5033,14.154,100.053,0.0017094
2.78,49.0034,14.154,100.053,0.0010431
2.84,49.5035,14.154,100.054,0.0014683
2.89,50.0036,14.154,100.055,0.0015140
2.94,50.5037,14.154,100.055,0.0012760
2.99,51.0038,14.154,100.056,-0.0003305
3.04,51.5038,14.154,100.056,0.0009428
3.09,52.0039,14.155,100.057,0.0005179
3.14,52.504,14.155,100.057,0.0011291
3.19,53.0041,14.155,100.058,0.0012218
3.25,53.5042,14.155,100.058,0.0007513
3.3,54.0043,14.155,100.059,0.0013601
3.35,54.5044,14.155,100.059,0.0012655
3.4,55.0045,14.155,100.06,0.0011709
3.45,55.5046,14.155,100.06,0.0013572
3.5,56.0046,14.155,100.061,0.0002804
3.55,56.5047,14.155,100.061,0.0007941
3.61,57.0048,14.155,100.061,0.0006530
3.66,57.5049,14.155,100.062,0.0009789
3.71,58.005,14.155,100.062,0.0009778
3.76,58.5051,14.155,100.063,0.0010700
3.81,59.0052,14.156,100.063,0.0011621
3.86,59.5053,14.156,100.064,0.0006038
3.91,60.0054,14.156,100.065,0.0011600
3.96,60.5054,14.156,100.065,0.0013449
4.01,61.0055,14.156,100.066,0.0008806
4.06,61.5056,14.156,100.066,0.0012048
4.11,62.0057,14.156,100.067,0.0011112
4.16,62.5058,14.156,100.067,0.0008792
4.21,63.0059,14.156,100.068,0.0010636
4.26,63.506,14.156,100.068,0.0010638
4.31,64.0061,14.156,100.069,0.0006935
4.36,64.5062,14.156,100.069,0.0011090
4.41,65.0063,14.156,100.07,0.0009237
4.46,65.5063,14.156,100.07,0.0009694
4.51,66.0064,14.157,100.071,0.0011538
4.57,66.5065,14.157,100.071,0.0011996
4.62,67.0066,14.157,100.072,0.0007841
4.67,67.5067,14.157,100.072,0.0009679
4.72,68.0068,14.157,100.073,0.0009674
4.77,68.5069,14.157,100.073,0.0010126
4.82,69.007,14.157,100.074,0.0011044
4.87,69.5071,14.157,100.074,0.0005982
4.92,70.0071,14.157,100.075,0.0011044
4.97,70.5072,14.157,100.075,0.0010122
5.02,71.0073,14.157,100.076,0.0013330
5.07,71.5074,14.157,100.077,0.0009654
5.12,72.0075,14.157,100.077,0.0009192
5.17,72.5076,14.158,100.078,0.0004596
5.22,73.0077,14.158,100.078,0.0005054
5.27,73.5078,14.158,100.078,0.0010103
5.32,74.0079,14.158,100.079,0.0013309
5.37,74.5079,14.158,100.079,0.0011012
5.42,75.008,14.158,100.08,0.0016061
5.47,75.5081,14.158,100.081,0.0018350
5.52,76.0082,14.158,100.082,0.0010548
5.57,76.5083,14.158,100.082,0.0014679
5.62,77.0084,14.158,100.083,0.0005046
5.67,77.5085,14.158,100.083,0.0012846
5.72,78.0086,14.158,100.084,0.0006424
5.77,78.5087,14.158,100.084,0.0005048
5.82,79.0088,14.159,100.084,0.0007797
5.87,79.5088,14.159,100.085,0.0009629
5.92,80.0089,14.159,100.085,0.0010539
5.97,80.509,14.159,100.086,0.0010535
6.02,81.0091,14.159,100.086,0.0007327
6.07,81.5092,14.159,100.087,0.0003663
6.12,82.0093,14.159,100.087,0.0011444
6.17,82.5094,14.159,100.087,0.0005946
6.22,83.0095,14.159,100.088,0.0008697
6.27,83.5096,14.159,100.088,0.0005491
6.32,84.0096,14.159,100.089,0.0004575
6.37,84.5097,14.159,100.089,0.0005033
6.42,85.0098,14.159,100.089,0.0005950
6.47,85.5099,14.159,100.09,0.0004120
6.52,86.01,14.159,100.09,0.0005036
6.57,86.5101,14.159,100.09,0.0001373
6.62,87.0102,14.159,100.09,0.0006865
6.67,87.5103,14.159,100.091,0.0008700
6.72,88.0104,14.159,100.091,0.0008701
6.77,88.5104,14.159,100.091,0.0006870
6.82,89.0105,14.16,100.092,0.0005039
6.87,89.5106,14.16,100.092,0.0009618
6.92,90.0107,14.16,100.092,0.0007781
6.97,90.5108,14.16,100.093,0.0007780
7.02,91.0109,14.16,100.093,0.0002743
7.07,91.511,14.16,100.093,0.0001372
7.12,92.0111,14.16,100.093,0.0005032
7.17,92.5112,14.16,100.094,0.0007320
7.22,93.0113,14.16,100.094,0.0002287
7.27,93.5113,14.16,100.094,0.0010980
7.32,94.0114,14.16,100.095,0.0006862
7.37,94.5115,14.16,100.095,0.0005491
7.42,95.0116,14.16,100.095,-0.0000000
7.47,95.5117,14.16,100.095,0.0002747
7.52,96.0118,14.16,100.095,0.0001831
7.57,96.5119,14.16,100.096,0.0007779
7.62,97.012,14.16,100.096,0.0000458
7.67,97.5121,14.16,100.096,-0.0000000
7.72,98.0121,14.16,100.096,0.0001373
7.77,98.5122,14.16,100.096,-0.0000916
7.82,99.0123,14.16,100.096,0.0003206
7.87,99.5124,14.16,100.096,0.0003205
7.92,100.013,14.16,100.097,-0.0000458
7.97,100.513,14.16,100.097,0.0004577
8.02,101.013,14.16,100.097,0.0002746
8.07,101.513,14.16,100.097,0.0000915
8.12,102.013,14.16,100.097,0.0003661
8.17,102.513,14.16,100.097,-0.0000000
8.22,103.013,14.16,100.097,0.0000458
8.27,103.513,14.16,100.097,0.0001832
8.32,104.013,14.16,100.097,-0.0000458
8.37,104.513,14.16,100.097,0.0002290
8.42,105.013,14.16,100.097,0.0004121
8.47,105.513,14.16,100.098,-0.0000915
8.52,106.014,14.16,100.098,0.0001831
8.57,106.514,14.16,100.098,0.0000000
8.62,107.014,14.16,100.098,-0.0000916
8.67,107.514,14.16,100.098,0.0004123
8.72,108.014,14.16,100.098,0.0002290
8.77,108.514,14.16,100.098,0.0002291
8.82,109.014,14.16,100.098,0.0004123
8.87,109.514,14.16,100.098,-0.0001832
8.92,110.014,14.16,100.098,-0.0000000
8.97,110.514,14.16,100.098,0.0001375
9.02,111.014,14.16,100.098,0.0001375
9.07,111.515,14.16,100.098,-0.0000459
9.12,112.015,14.16,100.098,-0.0002751
9.17,112.515,14.16,100.098,0.0000917
9.22,113.015,14.16,100.098,0.0000458
9.27,113.515,14.16,100.098,-0.0000459
9.32,114.015,14.16,100.098,0.0005960
9.37,114.515,14.16,100.099,0.0000916
9.42,115.015,14.16,100.099,-0.0002291
9.47,115.515,14.161,100.099,-0.0001833
9.52,116.015,14.161,100.099,0.0000458
9.57,116.515,14.161,100.099,0.0000916
9.62,117.016,14.161,100.099,0.0000000
9.67,117.516,14.161,100.099,-0.0001833
9.72,118.016,14.161,100.099,0.0001374
9.77,118.516,14.161,100.099,0.0004121
9.82,119.016,14.161,100.099,0.0003206
9.87,119.516,14.161,100.099,-0.0000458
9.92,120.016,14.161,100.099,0.0001832
9.97,120.516,14.161,100.099,0.0006412
10.02,121.016,14.161,100.099,0.0000458
10.07,121.516,14.161,100.099,0.0005958
10.12,122.016,14.161,100.099,-0.0002750
10.17,122.517,14.161,100.099,-0.0000917
10.22,123.017,14.161,100.099,0.0002293
10.27,123.517,14.161,100.099,0.0002752
10.32,124.017,14.161,100.099,0.0003666
10.37,124.517,14.161,100.099,-0.0000917
10.42,125.017,14.161,100.099,-0.0001376
10.47,125.517,14.161,100.099,-0.0001376
10.52,126.017,14.161,100.099,0.0002294
10.58,126.517,14.161,100.099,0.0003212
10.63,127.017,14.161,100.1,0.0000918
10.68,127.517,14.161,100.1,-0.0002295
10.73,128.018,14.161,100.1,-0.0001378
10.78,128.518,14.161,100.1,0.0003674
10.83,129.018,14.161,100.1,0.0005508
10.88,129.518,14.161,100.1,0.0003671
10.93,130.018,14.161,100.1,-0.0000459
10.98,130.518,14.161,100.1,0.0001378
11.03,131.018,14.161,100.101,0.0003217
11.08,131.518,14.161,100.101,0.0004136
11.13,132.018,14.161,100.101,0.0000460
11.18,132.518,14.161,100.101,0.0003215
11.23,133.018,14.161,100.101,0.0001376
11.28,133.518,14.161,100.101,0.0002294
11.33,134.019,14.161,100.102,0.0005964
11.38,134.519,14.161,100.102,0.0002294
11.43,135.019,14.161,100.102,0.0000459
11.48,135.519,14.161,100.102,0.0000000
11.53,136.019,14.161,100.102,0.0004125
11.58,136.519,14.161,100.102,0.0001832
11.63,137.019,14.161,100.102,0.0001374
11.68,137.519,14.161,100.102,-0.0003663
11.73,138.019,14.161,100.102,0.0000457
11.78,138.519,14.161,100.102,-0.0002744
11.83,139.019,14.161,100.102,-0.0006395
11.88,139.52,14.161,100.102,-0.0007761
11.93,140.02,14.161,100.101,-0.0002282
11.98,140.52,14.161,100.101,-0.0008199
12.03,141.02,14.161,100.101,-0.0010009
12.08,141.52,14.161,100.1,-0.0011807
12.13,142.02,14.161,100.099,-0.0011336
12.18,142.52,14.161,100.099,-0.0016293
12.23,143.02,14.16,100.098,-0.0017595
12.28,143.52,14.16,100.097,-0.0022058
12.32,144.02,14.16,100.096,-0.0023385
12.37,144.52,14.16,100.095,-0.0022917
12.42,145.021,14.16,100.094,-0.0022917
12.47,145.521,14.16,100.092,-0.0017997
12.52,146.021,14.159,100.091,-0.0022549
12.57,146.521,14.159,100.09,-0.0018979
12.62,147.021,14.159,100.089,-0.0019475
12.67,147.521,14.159,100.089,-0.0016356
12.72,148.021,14.159,100.088,-0.0020055
12.77,148.521,14.159,100.087,-0.0013260
12.82,149.021,14.159,100.086,-0.0015115
12.87,149.521,14.159,100.085,-0.0016067
12.92,150.021,14.159,100.085,-0.0014713
12.97,150.522,14.158,100.084,-0.0011974
13.02,151.022,14.158,100.083,-0.0012912
13.07,151.522,14.158,100.082,-0.0014305
13.12,152.022,14.158,100.082,-0.0011083
13.17,152.522,14.158,100.081,-0.0014790
13.22,153.022,14.158,100.081,-0.0011098
13.27,153.522,14.158,100.08,-0.0011558
13.32,154.022,14.158,100.079,-0.0011557
13.37,154.522,14.158,100.079,-0.0009700
13.42,155.022,14.158,100.078,-0.0011539
13.47,155.522,14.158,100.078,-0.0008764
13.52,156.023,14.158,100.077,-0.0007371
13.57,156.523,14.157,100.077,-0.0013815
13.62,157.023,14.157,100.076,-0.0007825
13.67,157.523,14.157,100.076,-0.0007824
13.73,158.023,14.157,100.075,-0.0011500
13.78,158.523,14.157,100.075,-0.0014256
13.83,159.023,14.157,100.074,-0.0009200
13.88,159.523,14.157,100.074,-0.0010575
13.93,160.023,14.157,100.073,-0.0011489
13.98,160.523,14.157,100.073,-0.0012869
14.03,161.023,14.157,100.072,-0.0007808
14.08,161.523,14.157,100.072,-0.0010101
14.13,162.024,14.157,100.071,-0.0008262
14.18,162.524,14.157,100.071,-0.0010098
14.23,163.024,14.156,100.07,-0.0013767
14.28,163.524,14.156,100.069,-0.0011016
14.33,164.024,14.156,100.069,-0.0012397
14.38,164.524,14.156,100.068,-0.0008722
14.43,165.024,14.156,100.068,-0.0011934
14.48,165.524,14.156,100.067,-0.0008722
14.53,166.024,14.156,100.067,-0.0011934
14.58,166.524,14.156,100.066,-0.0006425
14.63,167.024,14.156,100.066,-0.0008254
14.68,167.525,14.156,100.065,-0.0014675
14.73,168.025,14.156,100.064,-0.0013758
14.78,168.525,14.156,100.064,-0.0012844
14.83,169.025,14.155,100.063,-0.0015592
14.88,169.525,14.155,100.062,-0.0013755
14.93,170.025,14.155,100.062,-0.0013294
14.98,170.525,14.155,100.061,-0.0013293
15.03,171.025,14.155,100.06,-0.0011910
15.08,171.525,14.155,100.06,-0.0014655
15.13,172.025,14.155,100.059,-0.0016488
15.18,172.525,14.155,100.058,-0.0016489
15.23,173.026,14.155,100.058,-0.0015110
15.28,173.526,14.155,100.057,-0.0013739
15.33,174.026,14.155,100.056,-0.0013743
15.38,174.526,14.154,100.056,-0.0017866
15.43,175.026,14.154,100.055,-0.0013742
15.48,175.526,14.154,100.054,-0.0014203
15.53,176.026,14.154,100.054,-0.0012832
15.58,176.526,14.154,100.053,-0.0014203
15.63,177.026,14.154,100.052,-0.0015577
15.68,177.526,14.154,100.051,-0.0012829
15.73,178.026,14.154,100.051,-0.0014201
15.78,178.527,14.154,100.05,-0.0012367
15.83,179.027,14.154,100.049,-0.0012368
15.88,179.527,14.153,100.049,-0.0014197
15.93,180.027,14.153,100.048,-0.0010996
15.98,180.527,14.153,100.047,-0.0013742
16.03,181.027,14.153,100.047,-0.0014663
16.08,181.527,14.153,100.046,-0.0016954
16.13,182.027,14.153,100.045,-0.0013744
16.18,182.527,14.153,100.044,-0.0016496
16.23,183.027,14.153,100.044,-0.0016958
16.28,183.527,14.153,100.043,-0.0016503
16.33,184.028,14.152,100.042,-0.0017870
16.38,184.528,14.152,100.041,-0.0016954
16.43,185.028,14.152,100.04,-0.0011454
16.48,185.528,14.152,100.04,-0.0012824
16.53,186.028,14.152,100.039,-0.0015112
16.58,186.528,14.152,100.038,-0.0017399
16.63,187.028,14.152,100.037,-0.0017395
16.68,187.528,14.152,100.036,-0.0016948
16.73,188.028,14.152,100.036,-0.0015113
16.78,188.528,14.152,100.035,-0.0015568
16.83,189.028,14.151,100.034,-0.0018769
16.88,189.528,14.151,100.033,-0.0020143
16.93,190.029,14.151,100.032,-0.0018772
16.98,190.529,14.151,100.032,-0.0018773
17.03,191.029,14.151,100.031,-0.0018327
17.08,191.529,14.151,100.03,-0.0016957
17.13,192.029,14.151,100.029,-0.0015119
17.18,192.529,14.151,100.028,-0.0024281
17.23,193.029,14.15,100.027,-0.0011914
17.28,193.529,14.15,100.026,-0.0017871
17.33,194.029,14.15,100.026,-0.0016489
17.38,194.529,14.15,100.025,-0.0019694
17.43,195.029,14.15,100.024,-0.0016033
17.48,195.53,14.15,100.023,-0.0017865
17.53,196.03,14.15,100.022,-0.0021082
17.58,196.53,14.15,100.021,-0.0019248
17.63,197.03,14.149,100.02,-0.0019257
17.68,197.53,14.149,100.019,-0.0016970
17.73,198.03,14.149,100.018,-0.0021093
17.78,198.53,14.149,100.017,-0.0017425
17.83,199.03,14.149,100.017,-0.0016499
17.88,199.53,14.149,100.016,-0.0016944
17.93,200.03,14.149,100.015,-0.0018315
17.98,200.53,14.149,100.014,-0.0019685
18.03,201.031,14.148,100.013,-0.0015572
18.08,201.531,14.148,100.012,-0.0012834
18.13,202.031,14.148,100.011,-0.0019257
18.18,202.531,14.148,100.01,-0.0016508
18.23,203.031,14.148,100.009,-0.0019701
18.28,203.531,14.148,100.008,-0.0019248
18.33,204.031,14.148,100.007,-0.0017869
18.38,204.531,14.147,100.006,-0.0024283
18.43,205.031,14.147,100.005,-0.0023825
18.48,205.531,14.147,100.004,-0.0022436
18.53,206.031,14.147,100.003,-0.0020604
18.58,206.532,14.147,100.002,-0.0020147
18.63,207.032,14.147,100.002,-0.0017399
18.68,207.532,14.147,100.001,-0.0016952
18.73,208.032,14.147,100,-0.0012372
18.78,208.532,14.146,99.999,-0.0020613
18.83,209.032,14.146,99.998,-0.0020145
18.88,209.532,14.146,99.997,-0.0021532
18.93,210.032,14.146,99.996,-0.0019712
18.98,210.532,14.146,99.995,-0.0019712
19.03,211.032,14.146,99.994,-0.0019240
19.08,211.532,14.146,99.993,-0.0019240
19.13,212.033,14.145,99.992,-0.0019254
19.18,212.533,14.145,99.991,-0.0018792
19.23,213.033,14.145,99.99,-0.0018797
19.28,213.533,14.145,99.989,-0.0017878
19.33,214.033,14.145,99.988,-0.0016034
19.38,214.533,14.145,99.987,-0.0021076
19.43,215.033,14.145,99.986,-0.0021534
19.48,215.533,14.144,99.985,-0.0018332
19.53,216.033,14.144,99.984,-0.0021068
19.58,216.533,14.144,99.983,-0.0022446
19.63,217.033,14.144,99.982,-0.0021526
19.68,217.533,14.144,99.981,-0.0021078
19.73,218.034,14.144,99.98,-0.0019243
19.78,218.534,14.144,99.979,-0.0019701
19.83,219.034,14.143,99.978,-0.0024753
19.88,219.534,14.143,99.977,-0.0019716
19.93,220.034,14.143,99.976,-0.0021101
19.98,220.534,14.143,99.975,-0.0022929
20.03,221.034,14.143,99.974,-0.0019266
20.08,221.534,14.143,99.972,-0.0023388
20.13,222.034,14.142,99.971,-0.0022018
20.18,222.534,14.142,99.97,-0.0020638
20.23,223.034,14.142,99.969,-0.0020635
20.28,223.535,14.142,99.968,-0.0022925
20.33,224.035,14.142,99.967,-0.0025206
20.38,224.535,14.142,99.966,-0.0020170
20.43,225.035,14.142,99.965,-0.0022921
20.48,225.535,14.141,99.964,-0.0021536
20.53,226.035,14.141,99.963,-0.0022457
20.58,226.535,14.141,99.962,-0.0021082
20.63,227.035,14.141,99.96,-0.0021078
20.68,227.535,14.141,99.959,-0.0019699
20.73,228.035,14.141,99.958,-0.0020612
20.78,228.535,14.141,99.957,-0.0019234
20.83,229.036,14.14,99.956,-0.0017857
20.88,229.536,14.14,99.955,-0.0022900
20.93,230.036,14.14,99.954,-0.0019243
20.98,230.536,14.14,99.953,-0.0021988
21.03,231.036,14.14,99.952,-0.0020614
21.08,231.536,14.14,99.951,-0.0019243
21.13,232.036,14.139,99.95,-0.0021546
21.18,232.536,14.139,99.949,-0.0022002
21.23,233.036,14.139,99.948,-0.0020619
21.28,233.536,14.139,99.947,-0.0022915
21.33,234.036,14.139,99.946,-0.0022915
21.38,234.537,14.139,99.945,-0.0020162
21.43,235.037,14.139,99.943,-0.0022894
21.48,235.537,14.138,99.942,-0.0019698
21.53,236.037,14.138,99.941,-0.0021978
21.58,236.537,14.138,99.94,-0.0022440
21.63,237.037,14.138,99.939,-0.0021526
21.68,237.537,14.138,99.938,-0.0021062
21.73,238.037,14.138,99.937,-0.0022430
21.78,238.537,14.137,99.936,-0.0022436
21.83,239.037,14.137,99.935,-0.0024267
21.88,239.537,14.137,99.933,-0.0022442
21.93,240.038,14.137,99.932,-0.0021520
21.98,240.538,14.137,99.931,-0.0024274
22.03,241.038,14.137,99.93,-0.0021988
22.08,241.538,14.136,99.929,-0.0023816
22.13,242.038,14.136,99.928,-0.0026104
22.18,242.538,14.136,99.926,-0.0022900
22.23,243.038,14.136,99.925,-0.0021062
22.28,243.538,14.136,99.924,-0.0026106
22.33,244.038,14.136,99.923,-0.0024279
22.38,244.538,14.135,99.922,-0.0023810
22.43,245.038,14.135,99.921,-0.0024730
22.48,245.538,14.135,99.919,-0.0023818
22.53,246.039,14.135,99.918,-0.0022450
22.58,246.539,14.135,99.917,-0.0023827
22.63,247.039,14.135,99.916,-0.0022440
22.68,247.539,14.134,99.915,-0.0024274
22.73,248.039,14.134,99.913,-0.0024732
22.78,248.539,14.134,99.912,-0.0023825
22.83,249.039,14.134,99.911,-0.0027951
22.88,249.539,14.134,99.909,-0.0027027
22.93,250.039,14.134,99.908,-0.0023825
22.98,250.539,14.133,99.907,-0.0027493
23.03,251.039,14.133,99.906,-0.0024278
23.08,251.54,14.133,99.904,-0.0023366
23.13,252.04,14.133,99.903,-0.0025651
23.18,252.54,14.133,99.902,-0.0025653
23.23,253.04,14.132,99.901,-0.0024732
23.28,253.54,14.132,99.899,-0.0025202
23.34,254.04,14.132,99.898,-0.0026111
23.39,254.54,14.132,99.897,-0.0025195
23.44,255.04,14.132,99.895,-0.0025665
23.49,255.54,14.132,99.894,-0.0025669
23.54,256.04,14.131,99.893,-0.0023822
23.59,256.54,14.131,99.891,-0.0027971
23.64,257.041,14.131,99.89,-0.0027967
23.69,257.541,14.131,99.889,-0.0026123
23.74,258.041,14.131,99.887,-0.0027493
23.79,258.541,14.13,99.886,-0.0026572
23.84,259.041,14.13,99.885,-0.0027473
23.89,259.541,14.13,99.883,-0.0029778
23.94,260.041,14.13,99.882,-0.0027025
23.99,260.541,14.13,99.88,-0.0027488
24.04,261.041,14.129,99.879,-0.0026099
24.09,261.541,14.129,99.878,-0.0028399
24.14,262.041,14.129,99.876,-0.0029789
24.19,262.542,14.129,99.875,-0.0029778
24.24,263.042,14.129,99.873,-0.0029326
24.29,263.542,14.128,99.872,-0.0028857
24.34,264.042,14.128,99.871,-0.0027030
24.39,264.542,14.128,99.869,-0.0030259
24.44,265.042,14.128,99.868,-0.0025665
24.49,265.542,14.128,99.866,-0.0028414
24.54,266.042,14.127,99.865,-0.0029778
24.59,266.542,14.127,99.864,-0.0027015
24.64,267.042,14.127,99.862,-0.0027483
24.69,267.542,14.127,99.861,-0.0034360
24.74,268.043,14.127,99.859,-0.0029789
24.79,268.543,14.126,99.858,-0.0029778
24.84,269.043,14.126,99.856,-0.0029315
24.89,269.543,14.126,99.855,-0.0030232
24.94,270.043,14.126,99.853,-0.0032538
24.99,270.543,14.126,99.852,-0.0032051
25.04,271.043,14.125,99.85,-0.0027930
25.09,271.543,14.125,99.849,-0.0026571
25.14,272.043,14.125,99.847,-0.0033425
25.19,272.543,14.125,99.845,-0.0030237
25.24,273.043,14.124,99.844,-0.0025651
25.29,273.543,14.124,99.843,-0.0028867
25.34,274.044,14.124,99.841,-0.0028862
25.39,274.544,14.124,99.839,-0.0031623
25.44,275.044,14.124,99.838,-0.0026129
25.49,275.544,14.123,99.836,-0.0034831
25.54,276.044,14.123,99.835,-0.0031158
25.59,276.544,14.123,99.833,-0.0027030
25.64,277.044,14.123,99.832,-0.0031582
25.69,277.544,14.123,99.83,-0.0029762
25.74,278.044,14.122,99.829,-0.0032051
25.79,278.544,14.122,99.827,-0.0034341
25.84,279.044,14.122,99.825,-0.0031593
25.89,279.545,14.122,99.824,-0.0029762
25.94,280.045,14.121,99.822,-0.0032967
25.99,280.545,14.121,99.821,-0.0027473
26.04,281.045,14.121,99.819,-0.0029288
26.09,281.545,14.121,99.818,-0.0034780
26.14,282.045,14.121,99.816,-0.0027930
26.19,282.545,14.12,99.814,-0.0035714
26.24,283.045,14.12,99.813,-0.0037546
26.29,283.545,14.12,99.811,-0.0031604
26.34,284.045,14.12,99.809,-0.0032985
26.39,284.545,14.119,99.808,-0.0032521
26.44,285.046,14.119,99.806,-0.0029789
26.49,285.546,14.119,99.804,-0.0032081
26.54,286.046,14.119,99.803,-0.0032997
26.59,286.546,14.118,99.801,-0.0031146
26.64,287.046,14.118,99.799,-0.0033883
26.69,287.546,14.118,99.798,-0.0033425
26.74,288.046,14.118,99.796,-0.0029304
26.79,288.546,14.117,99.795,-0.0035734
26.84,289.046,14.117,99.793,-0.0032069
26.89,289.546,14.117,99.791,-0.0032064
26.94,290.046,14.117,99.79,-0.0032051
26.99,290.547,14.117,99.788,-0.0033439
27.04,291.047,14.116,99.786,-0.0031136
27.09,291.547,14.116,99.785,-0.0034799
27.14,292.047,14.116,99.783,-0.0031136
27.19,292.547,14.116,99.781,-0.0034818
27.24,293.047,14.115,99.78,-0.0032527
27.29,293.547,14.115,99.778,-0.0034830
27.34,294.047,14.115,99.776,-0.0029777
27.39,294.547,14.115,99.775,-0.0035734
27.44,295.047,14.114,99.773,-0.0036185
27.49,295.547,14.114,99.771,-0.0032069
27.54,296.048,14.114,99.77,-0.0038462
27.59,296.548,14.114,99.768,-0.0035727
27.64,297.048,14.113,99.766,-0.0030678
27.69,297.548,14.113,99.764,-0.0037546
27.74,298.048,14.113,99.763,-0.0035714
27.79,298.548,14.113,99.761,-0.0032069
27.84,299.048,14.112,99.759,-0.0038934
27.89,299.548,14.112,99.757,-0.0036205
27.94,300.048,14.112,99.756,-0.0030706
27.99,300.548,14.112,99.754,-0.0035256
28.04,301.048,14.111,99.752,-0.0034818
28.09,301.548,14.111,99.75,-0.0035734
28.14,302.049,14.111,99.749,-0.0034818
28.19,302.549,14.111,99.747,-0.0036205
28.24,303.049,14.111,99.745,-0.0034372
28.29,303.549,14.11,99.743,-0.0033456
28.34,304.049,14.11,99.742,-0.0038490
28.39,304.549,14.11,99.74,-0.0036206
28.44,305.049,14.109,99.738,-0.0033455
28.49,305.549,14.109,99.736,-0.0031616
28.54,306.049,14.109,99.735,-0.0034385
28.59,306.549,14.109,99.733,-0.0034830
28.64,307.049,14.109,99.731,-0.0038955
28.69,307.55,14.108,99.729,-0.0031593
28.74,308.05,14.108,99.727,-0.0034862
28.79,308.55,14.108,99.726,-0.0034378
28.84,309.05,14.108,99.724,-0.0037982
28.89,309.55,14.107,99.722,-0.0033852
28.94,310.05,14.107,99.72,-0.0036583
28.99,310.55,14.107,99.718,-0.0039814
29.04,311.05,14.106,99.717,-0.0037969
29.09,311.55,14.106,99.715,-0.0040256
29.14,312.05,14.106,99.713,-0.0036172
29.19,312.55,14.106,99.711,-0.0037546
29.24,313.051,14.105,99.709,-0.0031593
29.29,313.551,14.105,99.708,-0.0037088
29.34,314.051,14.105,99.706,-0.0037567
29.39,314.551,14.105,99.704,-0.0034799
29.44,315.051,14.104,99.702,-0.0038025
29.49,315.551,14.104,99.7,-0.0037115
29.54,316.051,14.104,99.698,-0.0038490
29.59,316.551,14.104,99.697,-0.0036186
29.64,317.051,14.103,99.695,-0.0035256
29.69,317.551,14.103,99.693,-0.0036609
29.74,318.051,14.103,99.691,-0.0032967
29.79,318.552,14.103,99.689,-0.0034811
29.84,319.052,14.102,99.687,-0.0037109
29.89,319.552,14.102,99.686,-0.0040789
29.94,320.052,14.102,99.684,-0.0033009
29.99,320.552,14.102,99.682,-0.0039864
30.04,321.052,14.101,99.68,-0.0038483
30.09,321.552,14.101,99.678,-0.0042125
30.14,322.052,14.101,99.676,-0.0037990
30.19,322.552,14.1,99.674,-0.0042560
30.24,323.052,14.1,99.672,-0.0035695
30.29,323.552,14.1,99.67,-0.0036609
30.34,324.053,14.1,99.668,-0.0037491
30.39,324.553,14.099,99.666,-0.0038420
30.44,325.053,14.099,99.665,-0.0037511
30.49,325.553,14.099,99.663,-0.0037977
30.54,326.053,14.099,99.661,-0.0038440
30.59,326.553,14.098,99.659,-0.0037983
30.64,327.053,14.098,99.657,-0.0040729
30.69,327.553,14.098,99.655,-0.0038434
30.74,328.053,14.097,99.653,-0.0042559
30.79,328.553,14.097,99.651,-0.0039377
30.84,329.053,14.097,99.649,-0.0041231
30.89,329.553,14.097,99.646,-0.0038955
30.94,330.054,14.096,99.644,-0.0041230
30.99,330.554,14.096,99.642,-0.0038933
31.04,331.054,14.096,99.64,-0.0036630
31.09,331.554,14.095,99.639,-0.0039377
31.14,332.054,14.095,99.636,-0.0044398
31.19,332.554,14.095,99.635,-0.0042559
31.24,333.054,14.095,99.632,-0.0042110
31.29,333.554,14.094,99.63,-0.0040737
31.34,334.054,14.094,99.628,-0.0043474
31.39,334.554,14.094,99.626,-0.0040263
31.44,335.054,14.093,99.624,-0.0041171
31.49,335.555,14.093,99.622,-0.0037982
31.54,336.055,14.093,99.62,-0.0044872
31.59,336.555,14.093,99.618,-0.0038897
31.64,337.055,14.092,99.616,-0.0036630
31.69,337.555,14.092,99.614,-0.0037088
31.74,338.055,14.092,99.612,-0.0036650
31.79,338.555,14.091,99.61,-0.0041681
31.84,339.055,14.091,99.608,-0.0040307
31.89,339.555,14.091,99.606,-0.0042125
31.94,340.055,14.091,99.604,-0.0042559
31.99,340.555,14.09,99.602,-0.0048535
32.04,341.056,14.09,99.6,-0.0043940
32.09,341.556,14.09,99.598,-0.0044397
32.14,342.056,14.089,99.595,-0.0043017
32.19,342.556,14.089,99.593,-0.0043016
32.24,343.056,14.089,99.591,-0.0046686
32.29,343.556,14.088,99.589,-0.0041650
32.34,344.056,14.088,99.587,-0.0048060
32.39,344.556,14.088,99.584,-0.0047619
32.44,345.056,14.087,99.582,-0.0045330
32.49,345.556,14.087,99.58,-0.0043981
32.54,346.056,14.087,99.578,-0.0048589
32.59,346.557,14.086,99.575,-0.0043538
32.64,347.057,14.086,99.573,-0.0047204
32.69,347.557,14.086,99.571,-0.0045354
32.74,348.057,14.086,99.569,-0.0044414
32.79,348.557,14.085,99.566,-0.0045788
32.84,349.057,14.085,99.564,-0.0038898
32.89,349.557,14.085,99.562,-0.0048051
32.94,350.057,14.084,99.559,-0.0048517
32.99,350.557,14.084,99.557,-0.0049012
33.04,351.057,14.084,99.555,-0.0045347
33.09,351.557,14.083,99.553,-0.0046703
33.14,352.058,14.083,99.55,-0.0048096
33.19,352.558,14.083,99.548,-0.0044913
33.24,353.058,14.082,99.545,-0.0049487
33.29,353.558,14.082,99.543,-0.0045829
33.34,354.058,14.082,99.541,-0.0050366
33.39,354.558,14.081,99.538,-0.0047645
33.44,355.058,14.081,99.536,-0.0050385
33.49,355.558,14.081,99.533,-0.0046703
33.54,356.058,14.08,99.531,-0.0046228
33.59,356.558,14.08,99.529,-0.0050339
33.64,357.058,14.08,99.526,-0.0048050
33.69,357.558,14.079,99.524,-0.0054447
33.74,358.059,14.079,99.521,-0.0050321
33.79,358.559,14.078,99.519,-0.0049890
33.84,359.059,14.078,99.516,-0.0052608
33.89,359.559,14.078,99.514,-0.0049863
33.94,360.059,14.077,99.511,-0.0052617
33.99,360.559,14.077,99.509,-0.0052169
34.04,361.059,14.077,99.506,-0.0056298
34.09,361.559,14.076,99.504,-0.0050806
34.14,362.059,14.076,99.501,-0.0051262
34.19,362.559,14.076,99.499,-0.0051245
34.24,363.059,14.075,99.496,-0.0053571
34.29,363.56,14.075,99.493,-0.0054915
34.34,364.06,14.074,99.491,-0.0057213
34.39,364.56,14.074,99.488,-0.0051712
34.44,365.06,14.074,99.485,-0.0049433
34.49,365.56,14.073,99.483,-0.0054925
34.54,366.06,14.073,99.48,-0.0054905
34.59,366.56,14.073,99.477,-0.0051703
34.64,367.06,14.072,99.474,-0.0057203
34.69,367.56,14.072,99.472,-0.0056319
34.74,368.06,14.071,99.469,-0.0056319
34.79,368.56,14.071,99.466,-0.0055403
34.84,369.061,14.071,99.463,-0.0056340
34.89,369.561,14.07,99.46,-0.0056777
34.94,370.061,14.07,99.457,-0.0059044
34.99,370.561,14.069,99.454,-0.0060920
35.04,371.061,14.069,99.451,-0.0060473
35.09,371.561,14.068,99.448,-0.0063222
35.14,372.061,14.068,99.445,-0.0065018
35.19,372.561,14.068,99.442,-0.0065042
35.24,373.061,14.067,99.438,-0.0070474
35.29,373.561,14.067,99.435,-0.0066825
35.34,374.061,14.066,99.432,-0.0069559
35.39,374.562,14.066,99.428,-0.0070971
35.44,375.062,14.065,99.425,-0.0069572
35.49,375.562,14.065,99.421,-0.0072344
35.54,376.062,14.064,99.417,-0.0076424
35.59,376.562,14.064,99.414,-0.0075508
35.64,377.062,14.063,99.41,-0.0080084
35.69,377.562,14.063,99.406,-0.0081472
35.74,378.062,14.062,99.402,-0.0081089
35.79,378.562,14.061,99.398,-0.0081577
35.84,379.062,14.061,99.394,-0.0082034
35.89,379.562,14.06,99.389,-0.0089826
35.94,380.063,14.06,99.385,-0.0089368
35.99,380.563,14.059,99.38,-0.0092610
36.04,381.063,14.058,99.376,-0.0093085
36.09,381.563,14.058,99.371,-0.0097141
36.14,382.063,14.057,99.366,-0.0099872
36.19,382.563,14.056,99.361,-0.0101611
36.24,383.063,14.055,99.356,-0.0103367
36.29,383.563,14.055,99.351,-0.0104205
36.34,384.063,14.054,99.345,-0.0110086
36.39,384.563,14.053,99.34,-0.0108219
36.44,385.063,14.052,99.334,-0.0115420
36.49,385.563,14.052,99.328,-0.0115356
36.54,386.064,14.051,99.323,-0.0120894
36.59,386.564,14.05,99.316,-0.0122719
36.64,387.064,14.049,99.31,-0.0125456
36.69,387.564,14.048,99.304,-0.0127807
36.74,388.064,14.047,99.297,-0.0131098
36.79,388.564,14.046,99.291,-0.0136197
36.84,389.064,14.045,99.284,-0.0141379
36.89,389.564,14.044,99.277,-0.0144636
36.94,390.064,14.043,99.269,-0.0147894
36.99,390.564,14.042,99.262,-0.0145604
37.04,391.064,14.041,99.254,-0.0153931
37.09,391.565,14.04,99.247,-0.0156680
37.14,392.065,14.039,99.239,-0.0162177
37.19,392.565,14.038,99.231,-0.0162636
37.24,393.065,14.036,99.222,-0.0168498
37.29,393.565,14.035,99.214,-0.0171308
37.34,394.065,14.034,99.205,-0.0175921
37.39,394.565,14.033,99.196,-0.0183028
37.44,395.065,14.031,99.187,-0.0186594
37.49,395.565,14.03,99.177,-0.0189664
37.54,396.065,14.029,99.168,-0.0192202
37.59,396.565,14.027,99.158,-0.0195971
37.64,397.066,14.026,99.148,-0.0203371
37.69,397.566,14.025,99.138,-0.0208333
37.74,398.066,14.023,99.127,-0.0215462
37.79,398.566,14.022,99.117,-0.0216914
37.84,399.066,14.02,99.106,-0.0218785
37.89,399.566,14.018,99.094,-0.0226981
37.94,400.066,14.017,99.083,-0.0234890
37.99,400.566,14.015,99.071,-0.0238509
38.04,401.066,14.013,99.059,-0.0248169
38.09,401.566,14.012,99.046,-0.0252197
38.14,402.066,14.01,99.033,-0.0260894
38.19,402.567,14.008,99.02,-0.0268315
38.24,403.067,14.006,99.007,-0.0271062
38.29,403.567,14.004,98.993,-0.0276557
38.34,404.067,14.002,98.979,-0.0283425
38.39,404.567,14,98.965,-0.0289730
38.44,405.067,13.998,98.95,-0.0297619
38.49,405.567,13.996,98.935,-0.0301282
38.54,406.067,13.994,98.92,-0.0309236
38.59,406.567,13.991,98.904,-0.0319257
38.64,407.067,13.989,98.888,-0.0320971
38.69,407.567,13.987,98.872,-0.0328514
38.74,408.068,13.985,98.855,-0.0338061
38.79,408.568,13.982,98.837,-0.0345380
38.84,409.068,13.98,98.82,-0.0353485
38.89,409.568,13.977,98.802,-0.0361391
38.94,410.068,13.974,98.784,-0.0373400
38.99,410.568,13.972,98.765,-0.0381766
39.04,411.068,13.969,98.745,-0.0396615
39.09,411.568,13.966,98.725,-0.0403388
39.14,412.068,13.963,98.705,-0.0412773
39.19,412.568,13.96,98.684,-0.0423690
39.24,413.068,13.957,98.663,-0.0431935
39.29,413.568,13.954,98.641,-0.0444597
39.34,414.069,13.951,98.618,-0.0453253
39.39,414.569,13.948,98.595,-0.0464287
39.44,415.069,13.945,98.572,-0.0479471
39.49,415.569,13.941,98.547,-0.0491056
39.54,416.069,13.938,98.523,-0.0504113
39.59,416.569,13.934,98.498,-0.0528388
39.64,417.069,13.93,98.472,-0.0529164
39.69,417.569,13.927,98.445,-0.0546546
39.74,418.069,13.923,98.416,-0.0564103
39.79,418.569,13.919,98.388,-0.0576007
39.84,419.069,13.914,98.359,-0.0589071
39.89,419.57,13.91,98.329,-0.0607960
39.94,420.07,13.906,98.299,-0.0620886
39.99,420.57,13.901,98.268,-0.0639982
40.04,421.07,13.897,98.235,-0.0661266
40.09,421.57,13.892,98.201,-0.0678571
40.14,422.07,13.887,98.166,-0.0698260
40.19,422.57,13.882,98.131,-0.0719780
40.24,423.07,13.877,98.094,-0.0738605
40.29,423.57,13.872,98.056,-0.0766383
40.34,424.07,13.866,98.016,-0.0779335
40.39,424.57,13.86,97.975,-0.0882595
40.44,425.071,13.854,97.93,-0.0905890
40.49,425.571,13.847,97.882,-0.1022040
40.54,426.071,13.84,97.833,-0.0998172
40.59,426.571,13.832,97.779,-0.1071890
40.64,427.071,13.825,97.724,-0.1094320
40.69,427.571,13.816,97.666,-0.1169410
40.74,428.071,13.808,97.608,-0.1257780
40.79,428.571,13.798,97.536,-0.1466670
40.84,429.071,13.789,97.472,-0.1203300
40.89,429.571,13.78,97.408,-0.1381460
40.94,430.071,13.769,97.334,-0.1480310
40.99,430.572,13.76,97.266,-0.1374900
41.04,431.072,13.75,97.198,-0.1348550
41.09,431.572,13.74,97.127,-0.1422760
41.14,432.072,13.73,97.053,-0.1396710
41.19,432.572,13.719,96.979,-0.1539310
41.24,433.072,13.708,96.902,-0.1640790
41.29,433.572,13.697,96.82,-0.1514170
41.34,434.072,13.686,96.746,-0.1378480
41.39,434.572,13.676,96.676,-0.1469480
41.44,435.072,13.665,96.599,-0.1653540
41.49,435.572,13.654,96.519,-0.1606680
41.54,436.073,13.642,96.435,-0.1674140
41.59,436.573,13.629,96.344,-0.1924270
41.64,437.073,13.616,96.248,-0.1964970
41.69,437.573,13.602,96.15,-0.2041150
41.74,438.073,13.588,96.05,-0.1970670
41.79,438.573,13.573,95.948,-0.2076380
41.84,439.073,13.559,95.845,-0.2180560
41.89,439.573,13.543,95.73,-0.2537090
41.94,440.073,13.524,95.597,-0.2793260
41.99,440.573,13.504,95.455,-0.2910180
42.04,441.073,13.483,95.308,-0.3011540
42.09,441.573,13.459,95.143,-0.3758490
42.14,442.074,13.432,94.948,-0.3963880
42.19,442.574,13.406,94.765,-0.3559580
42.24,443.074,13.381,94.588,-0.3495510
42.29,443.574,13.355,94.402,-0.3879070
42.34,444.074,13.327,94.208,-0.3755490
42.39,444.574,13.299,94.005,-0.4148180
42.44,445.074,13.269,93.794,-0.4207420
42.49,445.574,13.239,93.584,-0.3639110
42.54,446.074,13.213,93.4,-0.4087250
42.59,446.574,13.184,93.197,-0.4193330
42.64,447.074,13.154,92.982,-0.4522850
42.69,447.575,13.122,92.757,-0.4734740
42.74,448.075,13.086,92.505,-0.5416400
42.79,448.575,13.051,92.255,-0.4708490
42.84,449.075,13.018,92.025,-0.4743790
42.89,449.575,12.98,91.755,-0.6186170
42.94,450.075,12.937,91.453,-0.5886920
42.99,450.575,12.894,91.147,-0.6549400
43.04,451.075,12.85,90.833,-0.6304920
43.09,451.575,12.805,90.514,-0.6675830
43.14,452.075,12.753,90.147,-0.7673390
43.19,452.575,12.7,89.773,-0.7238210
43.24,453.076,12.642,89.366,-0.8332110
43.29,453.576,12.586,88.968,-0.7040140
43.34,454.076,12.531,88.583,-0.8479730
43.39,454.576,12.471,88.159,-0.8228940
43.44,455.076,12.405,87.689,-1.0783
43.49,455.576,12.329,87.153,-1.09064
43.54,456.076,12.248,86.576,-1.30275
43.59,456.576,12.157,85.935,-1.19263
43.64,457.076,12.076,85.363,-1.1134
43.69,457.576,11.995,84.788,-1.21243
43.74,458.076,11.901,84.129,-1.39505
43.79,458.577,11.811,83.49,-1.20937
43.84,459.077,11.723,82.871,-1.21394
43.89,459.577,11.625,82.177,-1.49024
43.94,460.077,11.52,81.434,-1.41715
43.99,460.577,11.419,80.718,-1.53391
44.04,461.077,11.311,79.955,-1.46972
44.09,461.577,11.203,79.191,-1.56461
44.14,462.077,11.086,78.363,-1.78135
44.19,462.577,10.962,77.488,-1.82796
44.24,463.077,10.831,76.566,-1.8161
44.29,463.577,10.692,75.579,-2.10822
44.34,464.078,10.55,74.58,-1.85789
44.39,464.578,10.41,73.586,-2.01599
44.44,465.078,10.266,72.568,-2.1472
44.49,465.578,10.106,71.438,-2.23096
44.54,466.078,9.944,70.293,-2.35179
44.59,466.578,9.767,69.042,-2.58245
44.64,467.078,9.593,67.81,-2.13278
44.69,467.578,9.427,66.64,-2.3912
44.74,468.078,9.25,65.387,-2.42892
44.79,468.578,9.069,64.109,-2.65697
44.84,469.078,8.875,62.735,-3.05108
44.89,469.578,8.655,61.183,-2.78156
44.94,470.079,8.446,59.705,-2.75839
44.99,470.579,8.239,58.238,-3.0023
45.04,471.079,8.026,56.733,-3.13793
45.09,471.579,7.811,55.213,-3.20388
45.14,472.079,7.572,53.524,-3.53937
45.19,472.579,7.315,51.71,-3.56873
45.24,473.079,7.05,49.837,-3.94965
45.29,473.579,6.778,47.914,-3.88665
45.35,474.079,6.492,45.893,-3.96416
45.4,474.579,6.173,43.636,-3.5811
45.45,475.079,5.925,41.885,-3.49782
45.49,475.58,5.685,40.184,-3.81356
45.54,476.08,5.429,38.377,-3.59656
45.59,476.58,5.168,36.529,-3.53689
45.64,477.08,4.91,34.705,-3.60946
45.69,477.58,4.654,32.897,-3.75449
45.74,478.08,4.382,30.972,-3.63142
45.79,478.58,4.123,29.147,-3.68302
45.84,479.08,3.864,27.314,-3.69854
45.89,479.58,3.612,25.536,-3.59855
45.94,480.08,3.356,23.726,-3.60118
45.99,480.58,3.103,21.935,-3.58298
46.04,481.081,2.854,20.172,-3.47025
46.09,481.581,2.603,18.403,-3.51387
46.14,482.081,2.358,16.669,-3.41609
46.19,482.581,2.119,14.98,-3.32662
46.24,483.081,1.888,13.344,-3.12546
46.29,483.581,1.667,11.787,-2.96381
46.34,484.081,1.464,10.345,-2.8351
46.39,484.581,1.265,8.944,-2.72222
46.44,485.081,1.079,7.629,-2.50645
46.49,485.581,0.9080000,6.418,-2.2278
46.54,486.081,0.7570000,5.352,-2.04971
46.59,486.582,0.6170000,4.364,-1.86298
46.64,487.082,0.4970000,3.516,-1.57921
46.69,487.582,0.3890000,2.753,-1.39309
46.74,488.082,0.3020000,2.132,-1.17464
46.79,488.582,0.2260000,1.601,-0.8992200
46.84,489.082,0.1680000,1.191,-0.7300110
46.89,489.582,0.1240000,0.8740000,-0.5565460
46.93,490.082,0.0910000,0.6440000,-0.3785690
46.98,490.582,0.0670000,0.4760000,-0.2797990
47.03,491.082,0.0520000,0.3660000,-0.1860210
47.08,491.582,0.0410000,0.2920000,-0.1161290
47.13,492.083,0.0350000,0.2470000,-0.0720192
47.18,492.583,0.0320000,0.2230000,-0.0375338
47.23,493.083,0.0290000,0.2040000,-0.0384907
47.28,493.583,0.0260000,0.1850000,-0.0364878
47.33,494.083,0.0240000,0.1690000,-0.0312302
47.39,494.583,0.0220000,0.1540000,-0.0254091
47.44,495.083,0.0200000,0.1430000,-0.0209868
47.49,495.583,0.0190000,0.1330000,-0.0166007
47.54,496.083,0.0180000,0.1260000,-0.0133814
47.59,496.583,0.0170000,0.1200000,-0.0106121
47.64,497.083,0.0160000,0.1150000,-0.0084610
47.69,497.583,0.0160000,0.1120000,-0.0059175
47.74,498.084,0.0150000,0.1090000,-0.0045924
47.79,498.584,0.0150000,0.1070000,-0.0035872
47.84,499.084,0.0150000,0.1050000,-0.0028627
47.89,499.584,0.0150000,0.1040000,-0.0025598
47.94,500.084,0.0150000,0.1030000,-0.0017003
47.99,500.584,0.0140000,0.1020000,-0.0017747
48.04,501.084,0.0140000,0.1010000,-0.0012447
48.09,501.584,0.0140000,0.1010000,-0.0013264
48.14,502.084,0.0140000,0.1000000,-0.0008303
48.19,502.584,0.0140000,0.1000000,-0.0006372
48.24,503.084,0.0140000,0.1000000,-0.0000648
48.29,503.585,0.0140000,0.1000000,-0.0000590
48.34,504.085,0.0140000,0.1000000,-0.0001468
48.39,504.585,0.0140000,0.1000000,-0.0006343
48.44,505.085,0.0140000,0.1000000,0.0000358
48.49,505.585,0.0140000,0.1000000,-0.0000574
48.54,506.085,0.0140000,0.0990000,-0.0000024
48.59,506.585,0.0140000,0.0990000,-0.0000813
48.64,507.085,0.0140000,0.0990000,-0.0000815
48.69,507.585,0.0140000,0.0990000,0.0001891
48.74,508.085,0.0140000,0.0990000,0.0002853
48.79,508.585,0.0140000,0.1000000,-0.0002473
48.84,509.086,0.0140000,0.1000000,0.0000885
48.89,509.586,0.0140000,0.1000000,-0.0000336
48.94,510.086,0.0140000,0.1000000,-0.0002190
48.99,510.586,0.0140000,0.0990000,-0.0002687
49.04,511.086,0.0140000,0.0990000,-0.0000151
49.09,511.586,0.0140000,0.0990000,-0.0000929
49.14,512.086,0.0140000,0.0990000,-0.0002828
49.19,512.586,0.0140000,0.0990000,0.0002133
49.24,513.086,0.0140000,0.0990000,0.0002831
49.29,513.586,0.0140000,0.0990000,-0.0001475
49.34,514.086,0.0140000,0.0990000,0.0000818
49.39,514.587,0.0140000,0.0990000,0.0002860
49.44,515.087,0.0140000,0.0990000,-0.0000121
49.49,515.587,0.0140000,0.0990000,-0.0000043
49.54,516.087,0.0140000,0.0990000,-0.0000773
49.59,516.587,0.0140000,0.0990000,0.0004923
49.64,517.087,0.0140000,0.0990000,0.0001521
49.69,517.587,0.0140000,0.0990000,0.0002535
49.74,518.087,0.0140000,0.1000000,-0.0001888
49.79,518.587,0.0140000,0.1000000,0.0002616
49.84,519.087,0.0140000,0.1000000,0.0003936
49.89,519.587,0.0140000,0.1000000,0.0005702
49.94,520.088,0.0140000,0.1000000,0.0001434
49.99,520.588,0.0140000,0.1000000,0.0003653
50.04,521.088,0.0140000,0.1000000,0.0000565
50.09,521.588,0.0140000,0.1000000,0.0003414
50.14,522.088,0.0140000,0.1000000,0.0001059
50.19,522.588,0.0140000,0.1000000,0.0002368
50.24,523.088,0.0140000,0.1000000,-0.0001327
50.29,523.588,0.0140000,0.1000000,0.0002893
50.34,524.088,0.0140000,0.1000000,-0.0001054
50.39,524.588,0.0140000,0.1000000,-0.0003262
50.44,525.088,0.0140000,0.1000000,-0.0002155
50.49,525.588,0.0140000,0.1000000,0.0001146
50.54,526.089,0.0140000,0.1000000,0.0000928
50.59,526.589,0.0140000,0.1000000,-0.0000801
50.64,527.089,0.0140000,0.1000000,0.0000487
50.69,527.589,0.0140000,0.1000000,-0.0000477
50.74,528.089,0.0140000,0.1000000,-0.0000272
50.79,528.589,0.0140000,0.1000000,0.0002086
50.84,529.089,0.0140000,0.1000000,0.0004236
50.89,529.589,0.0140000,0.1010000,0.0003240
50.94,530.089,0.0140000,0.1010000,-0.0001417
50.99,530.589,0.0140000,0.1010000,-0.0000859
51.04,531.089,0.0140000,0.1010000,0.0000046
51.09,531.59,0.0140000,0.1010000,-0.0000169
51.14,532.09,0.0140000,0.1010000,0.0001832
51.19,532.59,0.0140000,0.1010000,0.0000632
51.24,533.09,0.0140000,0.1010000,0.0004199
51.29,533.59,0.0140000,0.1010000,0.0002847
51.34,534.09,0.0140000,0.1010000,0.0001456
51.39,534.59,0.0140000,0.1010000,0.0000725
51.44,535.09,0.0140000,0.1010000,-0.0001356
51.49,535.59,0.0140000,0.1010000,0.0000023
51.54,536.09,0.0140000,0.1010000,0.0003226
51.59,536.59,0.0140000,0.1020000,-0.0000312
51.64,537.091,0.0140000,0.1020000,0.0000223
51.69,537.591,0.0140000,0.1020000,0.0002954
51.74,538.091,0.0140000,0.1020000,0.0000814
51.79,538.591,0.0140000,0.1020000,-0.0001793
51.84,539.091,0.0140000,0.1020000,-0.0002037
51.89,539.591,0.0140000,0.1010000,-0.0001401
51.94,540.091,0.0140000,0.1010000,0.0001261
51.99,540.591,0.0140000,0.1010000,0.0000367
52.04,541.091,0.0140000,0.1020000,0.0001521
52.09,541.591,0.0140000,0.1020000,-0.0001512
52.14,542.091,0.0140000,0.1020000,0.0001984
52.19,542.592,0.0140000,0.1020000,0.0004253
52.24,543.092,0.0140000,0.1020000,0.0001869
52.29,543.592,0.0140000,0.1020000,0.0000853
52.34,544.092,0.0140000,0.1020000,0.0003439
52.39,544.592,0.0140000,0.1020000,0.0002151
52.44,545.092,0.0140000,0.1020000,0.0002423
52.49,545.592,0.0140000,0.1020000,-0.0012247
52.54,546.092,0.0140000,0.1020000,-0.0006704
52.59,546.592,0.0140000,0.1010000,-0.0002740
52.64,547.092,0.0140000,0.1010000,-0.0004016
52.69,547.592,0.0140000,0.1010000,-0.0003628
52.74,548.093,0.0140000,0.1010000,-0.0002952
52.79,548.593,0.0140000,0.1010000,-0.0002745
52.84,549.093,0.0140000,0.1010000,-0.0003735
52.89,549.593,0.0140000,0.1010000,0.0000011
52.94,550.093,0.0140000,0.1010000,-0.0008233
52.99,550.593,0.0140000,0.1000000,-0.0000993
53.04,551.093,0.0140000,0.1000000,0.0002266
53.09,551.593,0.0140000,0.1000000,-0.0001017
53.14,552.093,0.0140000,0.1000000,-0.0004365
53.19,552.593,0.0140000,0.1000000,0.0003564
53.24,553.093,0.0140000,0.1000000,0.0003718
53.29,553.593,0.0140000,0.1000000,-0.0001697
53.34,554.094,0.0140000,0.1000000,-0.0001590
53.39,554.594,0.0140000,0.1000000,-0.0003693
53.44,555.094,0.0140000,0.1000000,0.0003930
53.49,555.594,0.0140000,0.1010000,0.0000727
53.54,556.094,0.0140000,0.1010000,0.0002158
53.59,556.594,0.0140000,0.1010000,0.0000265
53.64,557.094,0.0140000,0.1010000,0.0000458
53.69,557.594,0.0140000,0.1010000,-0.0003479
53.74,558.094,0.0140000,0.1010000,0.0000059
53.79,558.594,0.0140000,0.1010000,-0.0000383
53.84,559.094,0.0140000,0.1010000,-0.0000526
53.89,559.595,0.0140000,0.1010000,-0.0002310
53.94,560.095,0.0140000,0.1000000,-0.0000673
53.99,560.595,0.0140000,0.1000000,-0.0003720
54.04,561.095,0.0140000,0.1000000,0.0003007
54.09,561.595,0.0140000,0.1000000,0.0000649
54.14,562.095,0.0140000,0.1000000,0.0001864
54.19,562.595,0.0140000,0.1010000,-0.0000830
54.24,563.095,0.0140000,0.1010000,0.0001603
54.29,563.595,0.0140000,0.1010000,0.0000097
54.34,564.095,0.0140000,0.1000000,-0.0001715
54.39,564.595,0.0140000,0.1000000,-0.0000955
54.44,565.096,0.0140000,0.1000000,-0.0001073
54.49,565.596,0.0140000,0.1000000,-0.0000511
54.54,566.096,0.0140000,0.1000000,-0.0002024
54.59,566.596,0.0140000,0.1000000,-0.0001718
54.64,567.096,0.0140000,0.1000000,-0.0001603
54.69,567.596,0.0140000,0.1000000,0.0000150
54.74,568.096,0.0140000,0.1000000,0.0002544
54.79,568.596,0.0140000,0.1000000,-0.0001854
54.84,569.096,0.0140000,0.1000000,-0.0000723
54.89,569.596,0.0140000,0.1000000,-0.0004433
54.94,570.096,0.0140000,0.1000000,0.0000543
54.99,570.597,0.0140000,0.1000000,0.0005817
55.04,571.097,0.0140000,0.1000000,-0.0001049
55.09,571.597,0.0140000,0.1000000,-0.0001124
55.14,572.097,0.0140000,0.1000000,-0.0000417
55.19,572.597,0.0140000,0.1000000,-0.0001431
55.24,573.097,0.0140000,0.1000000,0.0000005
55.29,573.597,0.0140000,0.1000000,-0.0001444
55.34,574.097,0.0140000,0.1000000,-0.0000986
55.39,574.597,0.0140000,0.1000000,-0.0002765
55.44,575.097,0.0140000,0.1000000,0.0000657
55.49,575.597,0.0140000,0.1000000,-0.0003664
55.54,576.098,0.0140000,0.1000000,0.0002465
55.59,576.598,0.0140000,0.1000000,-0.0001291
55.64,577.098,0.0140000,0.1000000,-0.0000304
55.69,577.598,0.0140000,0.1000000,-0.0002848
55.74,578.098,0.0140000,0.1000000,-0.0001095
55.79,578.598,0.0140000,0.1000000,0.0009169
55.84,579.098,0.0140000,0.1000000,0.0001621
55.89,579.598,0.0140000,0.1000000,0.0000657
55.94,580.098,0.0140000,0.1000000,0.0000977
55.99,580.598,0.0140000,0.1000000,-0.0000502
56.04,581.098,0.0140000,0.1000000,0.0000546
56.09,581.598,0.0140000,0.1000000,0.0000699
56.14,582.099,0.0140000,0.1000000,0.0002510
56.19,582.599,0.0140000,0.1000000,0.0000078
56.24,583.099,0.0140000,0.1000000,-0.0000870
56.29,583.599,0.0140000,0.1000000,0.0000504
56.34,584.099,0.0140000,0.1000000,0.0001787
56.39,584.599,0.0140000,0.1000000,0.0001226
56.44,585.099,0.0140000,0.1000000,0.0004320
56.49,585.599,0.0140000,0.1000000,0.0000101
56.54,586.099,0.0140000,0.1000000,-0.0000682
56.59,586.599,0.0140000,0.1000000,0.0000849
56.64,587.099,0.0140000,0.1000000,0.0000936
56.69,587.6,0.0140000,0.1000000,0.0002788
56.74,588.1,0.0140000,0.1000000,-0.0000860
56.79,588.6,0.0140000,0.1000000,-0.0005501
56.84,589.1,0.0140000,0.1000000,-0.0008966
56.89,589.6,0.0140000,0.1000000,0.0008334
56.93,590,0.0140000,0.1000000,0.0002477