File: R/rHDPE_App/app/www/Output/TGA/Condensed_Data/Resin12_1__1.csv
0.6800000,30,11.289,100.011,0.0056664
0.7500000,30.5001,11.289,100.013,0.0116340
0.8200000,31.0002,11.289,100.016,-0.0006051
0.8800000,31.5003,11.29,100.018,0.0096034
0.9500000,32.0004,11.29,100.02,0.0075312
1.01,32.5004,11.29,100.022,0.0061353
1.07,33.0005,11.29,100.024,0.0041927
1.13,33.5006,11.291,100.026,0.0056943
1.19,34.0007,11.291,100.027,0.0061535
1.24,34.5008,11.291,100.029,0.0025348
1.3,35.0009,11.291,100.031,-0.0002614
1.36,35.501,11.291,100.032,0.0055417
1.42,36.0011,11.292,100.034,0.0023584
1.47,36.5012,11.292,100.035,0.0036145
1.53,37.0013,11.292,100.036,0.0034865
1.58,37.5013,11.292,100.037,0.0006025
1.64,38.0014,11.292,100.038,0.0035451
1.69,38.5015,11.292,100.039,0.0022826
1.74,39.0016,11.292,100.04,0.0019736
1.8,39.5017,11.292,100.041,0.0030932
1.85,40.0018,11.292,100.042,0.0004894
1.91,40.5019,11.293,100.043,0.0025353
1.96,41.002,11.293,100.044,0.0019996
2.01,41.5021,11.293,100.045,0.0016047
2.07,42.0021,11.293,100.046,0.0037864
2.12,42.5022,11.293,100.047,0.0021772
2.17,43.0023,11.293,100.048,0.0022180
2.22,43.5024,11.293,100.049,0.0032652
2.28,44.0025,11.293,100.05,0.0019155
2.33,44.5026,11.293,100.051,0.0014825
2.38,45.0027,11.294,100.052,0.0018634
2.43,45.5028,11.294,100.052,0.0013857
2.48,46.0029,11.294,100.053,0.0007149
2.54,46.5029,11.294,100.054,0.0015230
2.59,47.003,11.294,100.054,0.0018062
2.64,47.5031,11.294,100.055,0.0017120
2.69,48.0032,11.294,100.056,0.0015681
2.74,48.5033,11.294,100.057,0.0008061
2.79,49.0034,11.294,100.057,0.0012767
2.85,49.5035,11.294,100.058,0.0015104
2.9,50.0036,11.294,100.059,0.0008491
2.95,50.5037,11.294,100.059,0.0014603
3,51.0038,11.294,100.06,0.0017880
3.05,51.5038,11.295,100.061,0.0021664
3.11,52.0039,11.295,100.062,0.0012228
3.16,52.504,11.295,100.063,0.0018298
3.21,53.0041,11.295,100.064,0.0017332
3.26,53.5042,11.295,100.064,0.0015920
3.31,54.0043,11.295,100.065,0.0014502
3.36,54.5044,11.295,100.066,0.0012638
3.41,55.0045,11.295,100.066,0.0008409
3.46,55.5046,11.295,100.067,0.0019155
3.51,56.0046,11.295,100.068,0.0012597
3.56,56.5047,11.295,100.069,0.0016308
3.61,57.0048,11.296,100.07,0.0019084
3.67,57.5049,11.296,100.07,0.0012085
3.72,58.005,11.296,100.071,0.0014872
3.77,58.5051,11.296,100.072,0.0013007
3.82,59.0052,11.296,100.073,0.0014856
3.87,59.5053,11.296,100.074,0.0012534
3.92,60.0054,11.296,100.074,0.0009275
3.97,60.5054,11.296,100.075,0.0010657
4.02,61.0055,11.296,100.076,0.0013423
4.07,61.5056,11.296,100.076,0.0014329
4.12,62.0057,11.296,100.077,0.0014298
4.17,62.5058,11.296,100.078,0.0018901
4.22,63.0059,11.297,100.078,0.0014291
4.27,63.506,11.297,100.079,0.0016144
4.32,64.0061,11.297,100.08,0.0016153
4.37,64.5062,11.297,100.08,0.0015687
4.42,65.0063,11.297,100.081,0.0012916
4.48,65.5063,11.297,100.082,0.0012454
4.53,66.0064,11.297,100.082,0.0012453
4.58,66.5065,11.297,100.083,0.0014291
4.63,67.0066,11.297,100.084,0.0016597
4.68,67.5067,11.297,100.085,0.0016125
4.73,68.0068,11.297,100.085,0.0018858
4.78,68.5069,11.297,100.086,0.0015180
4.83,69.007,11.298,100.087,0.0012874
4.88,69.5071,11.298,100.087,0.0006898
4.93,70.0071,11.298,100.088,0.0012878
4.98,70.5072,11.298,100.088,0.0009649
5.03,71.0073,11.298,100.089,0.0014704
5.08,71.5074,11.298,100.09,0.0006896
5.13,72.0075,11.298,100.09,0.0011037
5.18,72.5076,11.298,100.091,0.0016094
5.23,73.0077,11.298,100.092,0.0013324
5.28,73.5078,11.298,100.093,0.0011949
5.33,74.0079,11.298,100.093,0.0008722
5.38,74.5079,11.298,100.094,0.0012414
5.43,75.008,11.298,100.094,0.0016581
5.48,75.5081,11.298,100.095,0.0012899
5.53,76.0082,11.299,100.096,0.0009674
5.58,76.5083,11.299,100.096,0.0015204
5.63,77.0084,11.299,100.097,0.0010141
5.68,77.5085,11.299,100.097,0.0012916
5.73,78.0086,11.299,100.098,0.0015709
5.78,78.5087,11.299,100.099,0.0014289
5.83,79.0088,11.299,100.1,0.0013325
5.88,79.5088,11.299,100.1,0.0010082
5.93,80.0089,11.299,100.101,0.0009165
5.98,80.509,11.299,100.101,0.0009621
6.03,81.0091,11.299,100.102,0.0012391
6.08,81.5092,11.299,100.102,0.0014282
6.13,82.0093,11.299,100.103,0.0012865
6.18,82.5094,11.299,100.103,0.0011022
6.23,83.0095,11.299,100.104,0.0007798
6.28,83.5096,11.3,100.104,0.0008703
6.33,84.0096,11.3,100.105,0.0009149
6.38,84.5097,11.3,100.105,0.0011879
6.43,85.0098,11.3,100.106,0.0010056
6.48,85.5099,11.3,100.106,0.0008234
6.53,86.01,11.3,100.107,0.0011901
6.58,86.5101,11.3,100.107,0.0016014
6.63,87.0102,11.3,100.108,0.0009142
6.68,87.5103,11.3,100.109,0.0011886
6.73,88.0104,11.3,100.109,0.0009150
6.78,88.5104,11.3,100.11,0.0008241
6.83,89.0105,11.3,100.11,0.0008246
6.88,89.5106,11.3,100.111,0.0016472
6.93,90.0107,11.3,100.111,0.0010981
6.98,90.5108,11.3,100.111,0.0007784
7.03,91.0109,11.3,100.112,0.0009169
7.08,91.511,11.3,100.112,0.0008249
7.13,92.0111,11.3,100.113,0.0005039
7.18,92.5112,11.3,100.113,0.0013271
7.23,93.0113,11.301,100.114,0.0005493
7.28,93.5113,11.301,100.114,0.0008701
7.33,94.0114,11.301,100.114,0.0013729
7.38,94.5115,11.301,100.115,0.0007770
7.43,95.0116,11.301,100.115,0.0013727
7.48,95.5117,11.301,100.116,0.0008260
7.53,96.0118,11.301,100.116,0.0003212
7.58,96.5119,11.301,100.116,0.0011025
7.63,97.012,11.301,100.117,0.0009170
7.69,97.5121,11.301,100.118,0.0015101
7.73,98.0121,11.301,100.118,0.0006404
7.78,98.5122,11.301,100.119,0.0008692
7.83,99.0123,11.301,100.119,0.0012359
7.88,99.5124,11.301,100.119,0.0003204
7.93,100.013,11.301,100.12,0.0002290
7.98,100.513,11.301,100.12,0.0000915
8.03,101.013,11.301,100.12,0.0003203
8.08,101.513,11.301,100.12,-0.0001372
8.13,102.013,11.301,100.12,0.0009608
8.18,102.513,11.301,100.121,0.0004580
8.23,103.013,11.301,100.121,0.0008246
8.28,103.513,11.301,100.121,0.0015578
8.34,104.013,11.301,100.122,0.0005043
8.39,104.513,11.302,100.122,0.0011921
8.44,105.013,11.302,100.123,0.0004579
8.49,105.513,11.302,100.123,0.0003661
8.53,106.014,11.302,100.123,0.0006396
8.58,106.514,11.302,100.123,0.0003196
8.63,107.014,11.302,100.123,0.0011869
8.68,107.514,11.302,100.124,0.0001826
8.73,108.014,11.302,100.124,0.0003198
8.78,108.514,11.302,100.124,0.0005490
8.83,109.014,11.302,100.125,0.0003206
8.88,109.514,11.302,100.125,0.0004122
8.93,110.014,11.302,100.125,0.0003663
8.98,110.514,11.302,100.125,0.0005939
9.03,111.014,11.302,100.126,0.0013252
9.08,111.515,11.302,100.126,0.0005940
9.13,112.015,11.302,100.126,0.0006860
9.18,112.515,11.302,100.127,0.0005482
9.23,113.015,11.302,100.127,0.0005939
9.28,113.515,11.302,100.127,0.0004573
9.33,114.015,11.302,100.127,0.0000457
9.38,114.515,11.302,100.127,0.0002284
9.43,115.015,11.302,100.127,0.0000914
9.48,115.515,11.302,100.127,-0.0001374
9.53,116.015,11.302,100.127,-0.0000459
9.58,116.515,11.302,100.127,0.0002300
9.63,117.016,11.302,100.127,0.0005505
9.68,117.516,11.302,100.128,0.0000916
9.73,118.016,11.302,100.128,0.0005483
9.78,118.516,11.302,100.128,0.0002289
9.83,119.016,11.302,100.128,0.0000915
9.88,119.516,11.302,100.128,0.0006422
9.93,120.016,11.302,100.128,0.0004118
9.98,120.516,11.302,100.129,0.0008230
10.03,121.016,11.302,100.129,0.0002289
10.08,121.516,11.302,100.129,0.0000916
10.13,122.016,11.302,100.129,0.0002287
10.18,122.517,11.302,100.129,0.0009146
10.23,123.017,11.302,100.129,-0.0002749
10.28,123.517,11.302,100.129,0.0000918
10.33,124.017,11.302,100.129,0.0003662
10.38,124.517,11.302,100.129,0.0001828
10.43,125.017,11.302,100.129,0.0003658
10.48,125.517,11.302,100.129,0.0002283
10.53,126.017,11.302,100.129,0.0000000
10.58,126.517,11.302,100.129,0.0000000
10.63,127.017,11.302,100.129,0.0000000
10.68,127.517,11.302,100.129,0.0000920
10.73,128.018,11.302,100.129,0.0006846
10.78,128.518,11.302,100.13,0.0002274
10.83,129.018,11.302,100.13,0.0000000
10.88,129.518,11.302,100.13,-0.0005006
10.93,130.018,11.302,100.129,-0.0001370
10.98,130.518,11.302,100.13,0.0000001
11.03,131.018,11.302,100.13,0.0002322
11.08,131.518,11.302,100.13,0.0002778
11.13,132.018,11.302,100.13,0.0002762
11.18,132.518,11.302,100.13,0.0003202
11.23,133.018,11.302,100.13,0.0003186
11.28,133.518,11.302,100.13,0.0001817
11.33,134.019,11.302,100.13,0.0002269
11.38,134.519,11.302,100.13,-0.0000909
11.43,135.019,11.302,100.13,0.0002273
11.48,135.519,11.302,100.13,0.0003644
11.53,136.019,11.302,100.131,0.0003192
11.58,136.519,11.302,100.131,0.0000000
11.63,137.019,11.302,100.131,0.0012329
11.68,137.519,11.303,100.131,0.0000000
11.73,138.019,11.303,100.131,0.0001373
11.78,138.519,11.302,100.131,-0.0003666
11.83,139.019,11.302,100.131,0.0000000
11.88,139.52,11.302,100.131,0.0005041
11.93,140.02,11.302,100.131,0.0005043
11.98,140.52,11.303,100.131,0.0010103
12.03,141.02,11.303,100.131,0.0003678
12.08,141.52,11.303,100.132,-0.0000000
12.13,142.02,11.303,100.132,-0.0000917
12.18,142.52,11.303,100.132,-0.0000916
12.23,143.02,11.303,100.132,-0.0000458
12.28,143.52,11.303,100.132,0.0005498
12.33,144.02,11.303,100.132,0.0004584
12.38,144.52,11.303,100.132,0.0002752
12.43,145.021,11.303,100.132,0.0002295
12.48,145.521,11.303,100.132,-0.0005997
12.53,146.021,11.303,100.132,0.0001851
12.58,146.521,11.303,100.132,0.0005967
12.63,147.021,11.303,100.133,0.0003635
12.68,147.521,11.303,100.133,0.0003631
12.73,148.021,11.303,100.133,-0.0006763
12.78,148.521,11.303,100.133,0.0003172
12.83,149.021,11.303,100.133,0.0001825
12.88,149.521,11.303,100.133,-0.0004621
12.93,150.021,11.303,100.133,-0.0001390
12.98,150.522,11.303,100.133,0.0004160
13.03,151.022,11.303,100.133,-0.0001851
13.08,151.522,11.303,100.133,0.0002778
13.14,152.022,11.303,100.133,0.0004604
13.19,152.522,11.303,100.133,0.0003212
13.24,153.022,11.303,100.133,-0.0008291
13.29,153.522,11.303,100.133,-0.0008725
13.34,154.022,11.303,100.132,-0.0004141
13.39,154.522,11.303,100.132,-0.0006910
13.44,155.022,11.303,100.131,-0.0008293
13.49,155.522,11.303,100.131,-0.0012402
13.54,156.023,11.302,100.13,-0.0011400
13.59,156.523,11.302,100.13,-0.0014030
13.64,157.023,11.302,100.129,-0.0011763
13.69,157.523,11.302,100.128,-0.0024071
13.74,158.023,11.302,100.127,-0.0023982
13.78,158.523,11.302,100.126,-0.0026275
13.83,159.023,11.302,100.124,-0.0020013
13.88,159.523,11.302,100.123,-0.0027531
13.93,160.023,11.301,100.122,-0.0022969
13.98,160.523,11.301,100.12,-0.0022570
14.03,161.023,11.301,100.119,-0.0019208
14.08,161.523,11.301,100.118,-0.0015044
14.13,162.024,11.301,100.118,-0.0022744
14.18,162.524,11.301,100.117,-0.0021381
14.23,163.024,11.301,100.116,-0.0023681
14.28,163.524,11.301,100.115,-0.0021818
14.33,164.024,11.301,100.114,-0.0010493
14.38,164.524,11.3,100.113,-0.0016479
14.43,165.024,11.3,100.112,-0.0016008
14.48,165.524,11.3,100.111,-0.0014216
14.53,166.024,11.3,100.111,-0.0017870
14.58,166.524,11.3,100.11,-0.0019248
14.63,167.024,11.3,100.109,-0.0016479
14.68,167.525,11.3,100.108,-0.0014604
14.73,168.025,11.3,100.107,-0.0012765
14.78,168.525,11.3,100.107,-0.0014155
14.83,169.025,11.3,100.106,-0.0016055
14.88,169.525,11.3,100.105,-0.0016114
14.93,170.025,11.3,100.105,-0.0014273
14.98,170.525,11.299,100.104,-0.0013739
15.03,171.025,11.299,100.103,-0.0015055
15.08,171.525,11.299,100.102,-0.0017371
15.13,172.025,11.299,100.102,-0.0014025
15.18,172.525,11.299,100.101,-0.0009331
15.24,173.026,11.299,100.1,-0.0015370
15.29,173.526,11.299,100.1,-0.0015254
15.34,174.026,11.299,100.099,-0.0015463
15.39,174.526,11.299,100.098,-0.0014123
15.44,175.026,11.299,100.097,-0.0011883
15.49,175.526,11.299,100.097,-0.0010959
15.54,176.026,11.299,100.096,-0.0014598
15.59,176.526,11.298,100.095,-0.0014594
15.64,177.026,11.298,100.094,-0.0013560
15.68,177.526,11.298,100.094,-0.0016213
15.73,178.026,11.298,100.093,-0.0010916
15.78,178.527,11.298,100.092,-0.0016514
15.83,179.027,11.298,100.091,-0.0026797
15.88,179.527,11.298,100.09,-0.0019889
15.93,180.027,11.298,100.09,-0.0019385
15.99,180.527,11.298,100.089,-0.0017557
16.04,181.027,11.298,100.088,-0.0015687
16.09,181.527,11.298,100.087,-0.0017487
16.14,182.027,11.297,100.086,-0.0011489
16.19,182.527,11.297,100.086,-0.0018814
16.24,183.027,11.297,100.085,-0.0017833
16.29,183.527,11.297,100.084,-0.0013707
16.34,184.028,11.297,100.083,-0.0009604
16.39,184.528,11.297,100.083,-0.0008704
16.44,185.028,11.297,100.082,-0.0016509
16.49,185.528,11.297,100.081,-0.0023003
16.54,186.028,11.297,100.08,-0.0023214
16.59,186.528,11.297,100.079,-0.0020903
16.64,187.028,11.297,100.078,-0.0015509
16.69,187.528,11.296,100.077,-0.0012844
16.74,188.028,11.296,100.076,-0.0016087
16.79,188.528,11.296,100.076,-0.0020664
16.84,189.028,11.296,100.075,-0.0019213
16.89,189.528,11.296,100.074,-0.0017865
16.94,190.029,11.296,100.073,-0.0015606
16.99,190.529,11.296,100.072,-0.0025256
17.04,191.029,11.296,100.071,-0.0017022
17.09,191.529,11.296,100.07,-0.0022570
17.14,192.029,11.295,100.069,-0.0018048
17.19,192.529,11.295,100.068,-0.0013339
17.24,193.029,11.295,100.067,-0.0023367
17.29,193.529,11.295,100.066,-0.0026965
17.34,194.029,11.295,100.064,-0.0019730
17.39,194.529,11.295,100.063,-0.0022930
17.44,195.029,11.295,100.062,-0.0016983
17.49,195.53,11.295,100.062,-0.0018825
17.54,196.03,11.295,100.06,-0.0017903
17.59,196.53,11.294,100.059,-0.0021554
17.64,197.03,11.294,100.058,-0.0020614
17.69,197.53,11.294,100.057,-0.0016983
17.74,198.03,11.294,100.057,-0.0009187
17.79,198.53,11.294,100.056,-0.0015784
17.84,199.03,11.294,100.055,-0.0026723
17.89,199.53,11.294,100.053,-0.0025347
17.94,200.03,11.294,100.052,-0.0023315
17.99,200.53,11.294,100.051,-0.0024496
18.04,201.031,11.293,100.05,-0.0024850
18.09,201.531,11.293,100.049,-0.0020629
18.14,202.031,11.293,100.048,-0.0021005
18.19,202.531,11.293,100.047,-0.0015544
18.24,203.031,11.293,100.046,-0.0020097
18.29,203.531,11.293,100.045,-0.0024207
18.34,204.031,11.293,100.044,-0.0023165
18.39,204.531,11.293,100.043,-0.0019484
18.44,205.031,11.292,100.042,-0.0022614
18.49,205.531,11.292,100.041,-0.0023932
18.54,206.031,11.292,100.04,-0.0024004
18.59,206.532,11.292,100.038,-0.0021360
18.64,207.032,11.292,100.037,-0.0025080
18.69,207.532,11.292,100.036,-0.0028377
18.74,208.032,11.292,100.035,-0.0022461
18.79,208.532,11.292,100.034,-0.0020529
18.84,209.032,11.291,100.033,-0.0023224
18.89,209.532,11.291,100.032,-0.0020243
18.94,210.032,11.291,100.031,-0.0023781
18.99,210.532,11.291,100.03,-0.0019614
19.04,211.032,11.291,100.029,-0.0023393
19.09,211.532,11.291,100.027,-0.0024887
19.15,212.033,11.291,100.026,-0.0021582
19.2,212.533,11.291,100.025,-0.0022725
19.25,213.033,11.29,100.024,-0.0021673
19.3,213.533,11.29,100.023,-0.0021192
19.35,214.033,11.29,100.022,-0.0027065
19.4,214.533,11.29,100.021,-0.0019623
19.45,215.033,11.29,100.02,-0.0020804
19.49,215.533,11.29,100.018,-0.0026430
19.54,216.033,11.29,100.017,-0.0023128
19.59,216.533,11.29,100.016,-0.0025809
19.64,217.033,11.289,100.015,-0.0020847
19.69,217.533,11.289,100.013,-0.0026499
19.75,218.034,11.289,100.012,-0.0023585
19.8,218.534,11.289,100.011,-0.0021519
19.85,219.034,11.289,100.01,-0.0023550
19.9,219.534,11.289,100.009,-0.0024777
19.95,220.034,11.289,100.008,-0.0022258
20,220.534,11.288,100.006,-0.0023585
20.05,221.034,11.288,100.005,-0.0023098
20.1,221.534,11.288,100.004,-0.0023993
20.15,222.034,11.288,100.002,-0.0029165
20.2,222.534,11.288,100.001,-0.0030796
20.25,223.034,11.288,100,-0.0027244
20.3,223.535,11.288,99.999,-0.0024933
20.35,224.035,11.287,99.998,-0.0025776
20.4,224.535,11.287,99.997,-0.0016033
20.45,225.035,11.287,99.996,-0.0022837
20.5,225.535,11.287,99.994,-0.0028780
20.55,226.035,11.287,99.993,-0.0028315
20.6,226.535,11.287,99.992,-0.0022682
20.65,227.035,11.287,99.991,-0.0026313
20.7,227.535,11.287,99.989,-0.0024635
20.75,228.035,11.286,99.988,-0.0031299
20.8,228.535,11.286,99.986,-0.0026227
20.85,229.036,11.286,99.985,-0.0027182
20.9,229.536,11.286,99.984,-0.0025823
20.95,230.036,11.286,99.983,-0.0027405
21,230.536,11.286,99.981,-0.0027385
21.05,231.036,11.285,99.98,-0.0027879
21.1,231.536,11.285,99.979,-0.0025206
21.15,232.036,11.285,99.977,-0.0026484
21.2,232.536,11.285,99.976,-0.0030825
21.25,233.036,11.285,99.975,-0.0027040
21.3,233.536,11.285,99.973,-0.0026511
21.35,234.036,11.285,99.972,-0.0026181
21.4,234.537,11.284,99.971,-0.0020414
21.45,235.037,11.284,99.97,-0.0024423
21.5,235.537,11.284,99.968,-0.0027503
21.55,236.037,11.284,99.967,-0.0026996
21.6,236.537,11.284,99.966,-0.0031123
21.65,237.037,11.284,99.964,-0.0027231
21.7,237.537,11.284,99.963,-0.0029734
21.75,238.037,11.283,99.961,-0.0025338
21.8,238.537,11.283,99.96,-0.0027365
21.85,239.037,11.283,99.959,-0.0027504
21.9,239.537,11.283,99.957,-0.0028170
21.96,240.038,11.283,99.956,-0.0024312
22,240.538,11.283,99.955,-0.0027760
22.05,241.038,11.282,99.953,-0.0029391
22.1,241.538,11.282,99.952,-0.0026450
22.15,242.038,11.282,99.951,-0.0026707
22.2,242.538,11.282,99.949,-0.0027396
22.25,243.038,11.282,99.948,-0.0028391
22.3,243.538,11.282,99.946,-0.0027147
22.35,244.038,11.282,99.945,-0.0024069
22.4,244.538,11.281,99.944,-0.0030507
22.45,245.038,11.281,99.942,-0.0030734
22.5,245.538,11.281,99.941,-0.0027892
22.55,246.039,11.281,99.939,-0.0029254
22.6,246.539,11.281,99.938,-0.0034812
22.65,247.039,11.281,99.936,-0.0031556
22.7,247.539,11.28,99.935,-0.0021267
22.75,248.039,11.28,99.934,-0.0030390
22.8,248.539,11.28,99.932,-0.0027758
22.84,249.039,11.28,99.931,-0.0027337
22.89,249.539,11.28,99.93,-0.0028803
22.94,250.039,11.28,99.928,-0.0028991
22.99,250.539,11.279,99.927,-0.0027833
23.04,251.039,11.279,99.925,-0.0028833
23.09,251.54,11.279,99.924,-0.0023396
23.14,252.04,11.279,99.923,-0.0024447
23.19,252.54,11.279,99.921,-0.0033845
23.24,253.04,11.279,99.92,-0.0029057
23.29,253.54,11.278,99.918,-0.0032966
23.34,254.04,11.278,99.917,-0.0031924
23.39,254.54,11.278,99.915,-0.0025168
23.44,255.04,11.278,99.914,-0.0030855
23.49,255.54,11.278,99.912,-0.0030099
23.54,256.04,11.278,99.911,-0.0028089
23.59,256.54,11.277,99.909,-0.0032980
23.64,257.041,11.277,99.908,-0.0028936
23.69,257.541,11.277,99.906,-0.0027660
23.74,258.041,11.277,99.905,-0.0032767
23.79,258.541,11.277,99.903,-0.0029504
23.84,259.041,11.277,99.902,-0.0030371
23.89,259.541,11.276,99.9,-0.0031308
23.94,260.041,11.276,99.899,-0.0033130
23.99,260.541,11.276,99.897,-0.0029466
24.04,261.041,11.276,99.896,-0.0030881
24.09,261.541,11.276,99.894,-0.0026306
24.14,262.041,11.276,99.893,-0.0029685
24.19,262.542,11.275,99.891,-0.0028720
24.24,263.042,11.275,99.89,-0.0028221
24.3,263.542,11.275,99.889,-0.0026510
24.35,264.042,11.275,99.887,-0.0028059
24.4,264.542,11.275,99.886,-0.0023645
24.45,265.042,11.275,99.884,-0.0035441
24.5,265.542,11.274,99.883,-0.0030994
24.55,266.042,11.274,99.881,-0.0032004
24.6,266.542,11.274,99.88,-0.0032949
24.65,267.042,11.274,99.878,-0.0029719
24.7,267.542,11.274,99.877,-0.0031181
24.75,268.043,11.274,99.875,-0.0033891
24.8,268.543,11.273,99.874,-0.0030346
24.85,269.043,11.273,99.872,-0.0031174
24.9,269.543,11.273,99.87,-0.0032330
24.95,270.043,11.273,99.869,-0.0022010
25,270.543,11.273,99.868,-0.0030538
25.05,271.043,11.273,99.866,-0.0028548
25.1,271.543,11.272,99.865,-0.0031290
25.15,272.043,11.272,99.863,-0.0034128
25.2,272.543,11.272,99.861,-0.0032485
25.25,273.043,11.272,99.86,-0.0033684
25.3,273.543,11.272,99.858,-0.0030516
25.35,274.044,11.272,99.856,-0.0037977
25.4,274.544,11.271,99.855,-0.0027528
25.45,275.044,11.271,99.853,-0.0033796
25.5,275.544,11.271,99.852,-0.0035879
25.55,276.044,11.271,99.85,-0.0031536
25.6,276.544,11.271,99.849,-0.0031536
25.65,277.044,11.27,99.847,-0.0033425
25.7,277.544,11.27,99.845,-0.0029734
25.75,278.044,11.27,99.844,-0.0032914
25.8,278.544,11.27,99.842,-0.0031841
25.85,279.044,11.27,99.841,-0.0029128
25.9,279.545,11.27,99.839,-0.0024765
25.95,280.045,11.269,99.838,-0.0036640
26,280.545,11.269,99.836,-0.0035695
26.05,281.045,11.269,99.834,-0.0031206
26.1,281.545,11.269,99.833,-0.0036379
26.14,282.045,11.269,99.831,-0.0030261
26.19,282.545,11.268,99.83,-0.0032523
26.24,283.045,11.268,99.828,-0.0033345
26.29,283.545,11.268,99.826,-0.0036548
26.34,284.045,11.268,99.824,-0.0038753
26.38,284.545,11.268,99.823,-0.0030898
26.43,285.046,11.268,99.821,-0.0031296
26.49,285.546,11.267,99.819,-0.0034825
26.54,286.046,11.267,99.817,-0.0034309
26.59,286.546,11.267,99.816,-0.0035766
26.63,287.046,11.267,99.814,-0.0033527
26.68,287.546,11.267,99.812,-0.0034722
26.73,288.046,11.266,99.81,-0.0038123
26.78,288.546,11.266,99.809,-0.0036325
26.83,289.046,11.266,99.807,-0.0038405
26.89,289.546,11.266,99.805,-0.0034709
26.94,290.046,11.266,99.803,-0.0037293
26.99,290.547,11.265,99.801,-0.0034101
27.04,291.047,11.265,99.8,-0.0036018
27.09,291.547,11.265,99.798,-0.0032509
27.14,292.047,11.265,99.797,-0.0031157
27.19,292.547,11.265,99.795,-0.0034049
27.24,293.047,11.264,99.793,-0.0037780
27.29,293.547,11.264,99.791,-0.0034832
27.34,294.047,11.264,99.789,-0.0037086
27.39,294.547,11.264,99.788,-0.0037328
27.44,295.047,11.264,99.786,-0.0038200
27.49,295.547,11.263,99.784,-0.0032470
27.54,296.048,11.263,99.782,-0.0033573
27.59,296.548,11.263,99.78,-0.0035999
27.64,297.048,11.263,99.779,-0.0037248
27.69,297.548,11.263,99.777,-0.0036218
27.74,298.048,11.262,99.775,-0.0031402
27.79,298.548,11.262,99.773,-0.0040418
27.84,299.048,11.262,99.771,-0.0039097
27.89,299.548,11.262,99.769,-0.0033922
27.94,300.048,11.261,99.767,-0.0034502
27.99,300.548,11.261,99.765,-0.0032619
28.04,301.048,11.261,99.764,-0.0033253
28.09,301.548,11.261,99.762,-0.0037184
28.14,302.049,11.261,99.76,-0.0034667
28.19,302.549,11.26,99.758,-0.0037086
28.23,303.049,11.26,99.756,-0.0039202
28.28,303.549,11.26,99.754,-0.0036449
28.33,304.049,11.26,99.752,-0.0035211
28.38,304.549,11.26,99.751,-0.0036449
28.44,305.049,11.259,99.749,-0.0040413
28.49,305.549,11.259,99.747,-0.0039884
28.54,306.049,11.259,99.745,-0.0042643
28.59,306.549,11.259,99.743,-0.0043604
28.64,307.049,11.258,99.741,-0.0041253
28.69,307.55,11.258,99.739,-0.0041253
28.74,308.05,11.258,99.737,-0.0041145
28.79,308.55,11.258,99.735,-0.0040946
28.84,309.05,11.258,99.733,-0.0033815
28.9,309.55,11.257,99.731,-0.0038904
28.95,310.05,11.257,99.729,-0.0042286
29,310.55,11.257,99.727,-0.0036334
29.05,311.05,11.257,99.725,-0.0035474
29.1,311.55,11.256,99.723,-0.0039085
29.15,312.05,11.256,99.721,-0.0040976
29.21,312.55,11.256,99.719,-0.0037220
29.26,313.051,11.256,99.718,-0.0038597
29.3,313.551,11.256,99.716,-0.0040834
29.35,314.051,11.255,99.714,-0.0038312
29.4,314.551,11.255,99.712,-0.0039076
29.45,315.051,11.255,99.71,-0.0040719
29.5,315.551,11.255,99.708,-0.0039855
29.55,316.051,11.254,99.706,-0.0043395
29.59,316.551,11.254,99.704,-0.0040506
29.64,317.051,11.254,99.702,-0.0038441
29.69,317.551,11.254,99.7,-0.0043079
29.75,318.051,11.254,99.697,-0.0044799
29.8,318.552,11.253,99.696,-0.0034767
29.85,319.052,11.253,99.694,-0.0040450
29.9,319.552,11.253,99.692,-0.0040598
29.95,320.052,11.253,99.689,-0.0040553
30,320.552,11.252,99.687,-0.0043383
30.05,321.052,11.252,99.685,-0.0044480
30.1,321.552,11.252,99.683,-0.0040384
30.16,322.052,11.252,99.681,-0.0039077
30.21,322.552,11.252,99.679,-0.0037410
30.26,323.052,11.251,99.677,-0.0043478
30.31,323.552,11.251,99.675,-0.0043358
30.36,324.053,11.251,99.673,-0.0039169
30.41,324.553,11.251,99.671,-0.0039005
30.46,325.053,11.25,99.668,-0.0045455
30.51,325.553,11.25,99.666,-0.0043740
30.56,326.053,11.25,99.664,-0.0044276
30.61,326.553,11.25,99.662,-0.0043851
30.66,327.053,11.249,99.66,-0.0042310
30.71,327.553,11.249,99.657,-0.0043779
30.76,328.053,11.249,99.655,-0.0037927
30.81,328.553,11.249,99.653,-0.0042442
30.86,329.053,11.248,99.651,-0.0035987
30.9,329.553,11.248,99.649,-0.0043892
30.95,330.054,11.248,99.647,-0.0044414
31,330.554,11.248,99.645,-0.0047309
31.06,331.054,11.247,99.642,-0.0044767
31.11,331.554,11.247,99.64,-0.0046630
31.16,332.054,11.247,99.638,-0.0046655
31.21,332.554,11.247,99.636,-0.0044079
31.26,333.054,11.246,99.633,-0.0045692
31.31,333.554,11.246,99.631,-0.0044454
31.36,334.054,11.246,99.629,-0.0044011
31.41,334.554,11.246,99.627,-0.0044491
31.46,335.054,11.245,99.624,-0.0041723
31.51,335.555,11.245,99.622,-0.0044276
31.56,336.055,11.245,99.62,-0.0047261
31.61,336.555,11.245,99.618,-0.0046305
31.66,337.055,11.244,99.615,-0.0041467
31.7,337.555,11.244,99.613,-0.0041282
31.75,338.055,11.244,99.611,-0.0048298
31.8,338.555,11.244,99.609,-0.0050495
31.85,339.055,11.243,99.607,-0.0049109
31.9,339.555,11.243,99.604,-0.0040546
31.95,340.055,11.243,99.602,-0.0054991
32,340.555,11.242,99.599,-0.0056196
32.05,341.056,11.242,99.597,-0.0051996
32.1,341.556,11.242,99.595,-0.0050392
32.15,342.056,11.242,99.592,-0.0053341
32.21,342.556,11.241,99.589,-0.0050735
32.26,343.056,11.241,99.587,-0.0050496
32.31,343.556,11.241,99.585,-0.0045388
32.36,344.056,11.241,99.582,-0.0040835
32.41,344.556,11.24,99.58,-0.0042081
32.46,345.056,11.24,99.577,-0.0048804
32.51,345.556,11.24,99.575,-0.0048450
32.56,346.056,11.239,99.573,-0.0049517
32.61,346.557,11.239,99.57,-0.0043150
32.65,347.057,11.239,99.568,-0.0048255
32.7,347.557,11.239,99.566,-0.0047889
32.75,348.057,11.238,99.563,-0.0043978
32.8,348.557,11.238,99.561,-0.0047640
32.85,349.057,11.238,99.559,-0.0052388
32.9,349.557,11.238,99.556,-0.0049750
32.95,350.057,11.237,99.554,-0.0050926
33,350.557,11.237,99.551,-0.0044808
33.05,351.057,11.237,99.549,-0.0050397
33.1,351.557,11.236,99.546,-0.0052778
33.15,352.058,11.236,99.543,-0.0051957
33.2,352.558,11.236,99.541,-0.0048848
33.25,353.058,11.236,99.538,-0.0053114
33.3,353.558,11.235,99.536,-0.0044107
33.35,354.058,11.235,99.533,-0.0048390
33.4,354.558,11.235,99.531,-0.0048198
33.45,355.058,11.234,99.528,-0.0046438
33.5,355.558,11.234,99.526,-0.0047955
33.55,356.058,11.234,99.523,-0.0046246
33.6,356.558,11.234,99.521,-0.0044441
33.65,357.058,11.233,99.518,-0.0052559
33.7,357.558,11.233,99.516,-0.0055279
33.75,358.059,11.233,99.513,-0.0051040
33.8,358.559,11.232,99.51,-0.0050840
33.85,359.059,11.232,99.508,-0.0056180
33.9,359.559,11.232,99.505,-0.0055036
33.96,360.059,11.232,99.502,-0.0055985
34.01,360.559,11.231,99.499,-0.0058565
34.06,361.059,11.231,99.496,-0.0055345
34.11,361.559,11.231,99.494,-0.0053290
34.16,362.059,11.23,99.491,-0.0054497
34.21,362.559,11.23,99.488,-0.0050251
34.26,363.059,11.23,99.486,-0.0049089
34.31,363.56,11.229,99.483,-0.0051632
34.36,364.06,11.229,99.481,-0.0048557
34.4,364.56,11.229,99.478,-0.0051542
34.45,365.06,11.229,99.476,-0.0051386
34.5,365.56,11.228,99.473,-0.0053018
34.55,366.06,11.228,99.471,-0.0052645
34.6,366.56,11.228,99.468,-0.0048638
34.65,367.06,11.227,99.465,-0.0051937
34.71,367.56,11.227,99.463,-0.0051210
34.76,368.06,11.227,99.46,-0.0054537
34.81,368.56,11.226,99.457,-0.0053134
34.86,369.061,11.226,99.454,-0.0056210
34.9,369.561,11.226,99.452,-0.0051481
34.95,370.061,11.226,99.449,-0.0049455
35,370.561,11.225,99.446,-0.0054034
35.05,371.061,11.225,99.444,-0.0051961
35.1,371.561,11.225,99.441,-0.0057714
35.15,372.061,11.224,99.438,-0.0057710
35.2,372.561,11.224,99.435,-0.0055167
35.25,373.061,11.224,99.433,-0.0053639
35.3,373.561,11.223,99.43,-0.0055889
35.35,374.061,11.223,99.427,-0.0049883
35.4,374.562,11.223,99.425,-0.0048967
35.45,375.062,11.223,99.422,-0.0055675
35.5,375.562,11.222,99.419,-0.0053847
35.55,376.062,11.222,99.417,-0.0059687
35.6,376.562,11.222,99.414,-0.0058513
35.65,377.062,11.221,99.411,-0.0056808
35.7,377.562,11.221,99.408,-0.0060314
35.75,378.062,11.221,99.405,-0.0060030
35.8,378.562,11.22,99.402,-0.0057393
35.85,379.062,11.22,99.399,-0.0057308
35.9,379.562,11.22,99.396,-0.0061831
35.95,380.063,11.219,99.393,-0.0059776
36,380.563,11.219,99.39,-0.0058872
36.05,381.063,11.219,99.387,-0.0055254
36.1,381.563,11.218,99.385,-0.0058823
36.15,382.063,11.218,99.382,-0.0059654
36.2,382.563,11.218,99.379,-0.0064302
36.25,383.063,11.217,99.376,-0.0062796
36.3,383.563,11.217,99.373,-0.0058224
36.35,384.063,11.217,99.37,-0.0058737
36.4,384.563,11.216,99.367,-0.0055876
36.45,385.063,11.216,99.364,-0.0060263
36.5,385.563,11.216,99.361,-0.0063021
36.55,386.064,11.215,99.358,-0.0067060
36.6,386.564,11.215,99.355,-0.0065562
36.65,387.064,11.215,99.352,-0.0063274
36.7,387.564,11.214,99.349,-0.0061098
36.75,388.064,11.214,99.346,-0.0062500
36.8,388.564,11.214,99.343,-0.0063600
36.85,389.064,11.213,99.34,-0.0061364
36.89,389.564,11.213,99.337,-0.0060866
36.94,390.064,11.212,99.334,-0.0061086
36.99,390.564,11.212,99.33,-0.0063292
37.04,391.064,11.212,99.327,-0.0059313
37.1,391.565,11.211,99.324,-0.0065336
37.15,392.065,11.211,99.321,-0.0061615
37.2,392.565,11.211,99.318,-0.0067220
37.25,393.065,11.21,99.315,-0.0061808
37.3,393.565,11.21,99.312,-0.0063134
37.35,394.065,11.21,99.308,-0.0062558
37.4,394.565,11.209,99.305,-0.0062121
37.45,395.065,11.209,99.302,-0.0055371
37.5,395.565,11.209,99.299,-0.0062847
37.55,396.065,11.208,99.296,-0.0065899
37.6,396.565,11.208,99.293,-0.0059513
37.65,397.066,11.208,99.29,-0.0059369
37.7,397.566,11.207,99.287,-0.0063207
37.75,398.066,11.207,99.284,-0.0067169
37.81,398.566,11.206,99.28,-0.0065902
37.86,399.066,11.206,99.277,-0.0060629
37.91,399.566,11.206,99.274,-0.0061063
37.96,400.066,11.205,99.271,-0.0063393
38.01,400.566,11.205,99.267,-0.0062874
38.06,401.066,11.205,99.264,-0.0071818
38.11,401.566,11.204,99.261,-0.0067432
38.15,402.066,11.204,99.257,-0.0064687
38.2,402.567,11.204,99.254,-0.0067394
38.25,403.067,11.203,99.251,-0.0071038
38.3,403.567,11.203,99.247,-0.0070880
38.35,404.067,11.202,99.244,-0.0066558
38.4,404.567,11.202,99.24,-0.0066951
38.45,405.067,11.202,99.237,-0.0073279
38.5,405.567,11.201,99.233,-0.0073741
38.55,406.067,11.201,99.229,-0.0073529
38.6,406.567,11.2,99.226,-0.0075924
38.65,407.067,11.2,99.222,-0.0078526
38.7,407.567,11.199,99.218,-0.0076455
38.75,408.068,11.199,99.214,-0.0077272
38.8,408.568,11.199,99.21,-0.0078807
38.85,409.068,11.198,99.206,-0.0081844
38.9,409.568,11.198,99.202,-0.0083566
38.95,410.068,11.197,99.198,-0.0085138
39,410.568,11.197,99.193,-0.0089104
39.05,411.068,11.196,99.189,-0.0084316
39.1,411.568,11.196,99.184,-0.0086777
39.15,412.068,11.195,99.18,-0.0096101
39.2,412.568,11.195,99.175,-0.0093373
39.25,413.068,11.194,99.17,-0.0096330
39.3,413.568,11.194,99.165,-0.0102257
39.36,414.069,11.193,99.16,-0.0100297
39.41,414.569,11.192,99.155,-0.0105680
39.46,415.069,11.192,99.15,-0.0103256
39.51,415.569,11.191,99.145,-0.0110852
39.56,416.069,11.191,99.139,-0.0108231
39.61,416.569,11.19,99.134,-0.0108099
39.65,417.069,11.189,99.129,-0.0109919
39.7,417.569,11.189,99.123,-0.0107619
39.75,418.069,11.188,99.118,-0.0119199
39.8,418.569,11.187,99.111,-0.0125461
39.85,419.069,11.187,99.105,-0.0128511
39.9,419.57,11.186,99.099,-0.0133022
39.95,420.07,11.185,99.093,-0.0132466
40,420.57,11.185,99.086,-0.0130265
40.05,421.07,11.184,99.079,-0.0127111
40.1,421.57,11.183,99.073,-0.0135770
40.15,422.07,11.182,99.066,-0.0142735
40.21,422.57,11.181,99.059,-0.0149520
40.26,423.07,11.181,99.051,-0.0142728
40.3,423.57,11.18,99.044,-0.0143479
40.35,424.07,11.179,99.037,-0.0145427
40.4,424.57,11.178,99.03,-0.0142916
40.44,425.071,11.177,99.023,-0.0156112
40.49,425.571,11.176,99.014,-0.0163918
40.54,426.071,11.176,99.006,-0.0168875
40.59,426.571,11.175,98.998,-0.0171969
40.64,427.071,11.174,98.989,-0.0176063
40.69,427.571,11.173,98.98,-0.0171127
40.74,428.071,11.172,98.972,-0.0176038
40.79,428.571,11.171,98.963,-0.0175063
40.84,429.071,11.17,98.953,-0.0181067
40.89,429.571,11.169,98.944,-0.0185701
40.94,430.071,11.167,98.935,-0.0185984
40.99,430.572,11.166,98.925,-0.0184129
41.04,431.072,11.165,98.916,-0.0195989
41.09,431.572,11.164,98.906,-0.0206688
41.14,432.072,11.163,98.895,-0.0207756
41.19,432.572,11.162,98.885,-0.0218118
41.24,433.072,11.161,98.874,-0.0216950
41.29,433.572,11.159,98.863,-0.0225138
41.34,434.072,11.158,98.852,-0.0224141
41.39,434.572,11.157,98.841,-0.0223468
41.44,435.072,11.156,98.829,-0.0229938
41.49,435.572,11.154,98.818,-0.0231169
41.54,436.073,11.153,98.806,-0.0246569
41.59,436.573,11.152,98.793,-0.0251012
41.64,437.073,11.15,98.781,-0.0255215
41.69,437.573,11.149,98.768,-0.0264934
41.74,438.073,11.147,98.755,-0.0265011
41.79,438.573,11.146,98.741,-0.0263329
41.84,439.073,11.144,98.728,-0.0287335
41.9,439.573,11.142,98.713,-0.0287426
41.95,440.073,11.141,98.699,-0.0290654
42,440.573,11.139,98.684,-0.0297774
42.05,441.073,11.137,98.669,-0.0305886
42.1,441.573,11.136,98.654,-0.0303620
42.15,442.074,11.134,98.638,-0.0318804
42.2,442.574,11.132,98.622,-0.0322267
42.25,443.074,11.13,98.605,-0.0344081
42.3,443.574,11.128,98.588,-0.0352437
42.36,444.074,11.126,98.57,-0.0358266
42.41,444.574,11.124,98.552,-0.0367391
42.46,445.074,11.122,98.533,-0.0374453
42.51,445.574,11.12,98.514,-0.0391265
42.55,446.074,11.118,98.495,-0.0398761
42.6,446.574,11.116,98.475,-0.0406170
42.65,447.074,11.113,98.454,-0.0414534
42.7,447.575,11.111,98.433,-0.0436260
42.75,448.075,11.108,98.411,-0.0449262
42.81,448.575,11.106,98.388,-0.0459685
42.86,449.075,11.103,98.365,-0.0469560
42.91,449.575,11.101,98.341,-0.0481516
42.96,450.075,11.098,98.316,-0.0495387
43.01,450.575,11.095,98.292,-0.0504616
43.06,451.075,11.092,98.266,-0.0517304
43.11,451.575,11.089,98.24,-0.0537335
43.16,452.075,11.086,98.212,-0.0557324
43.21,452.575,11.083,98.183,-0.0601805
43.27,453.076,11.079,98.151,-0.0682897
43.33,453.576,11.075,98.116,-0.0745704
43.39,454.076,11.071,98.079,-0.0711050
43.44,454.576,11.067,98.044,-0.0673592
43.49,455.076,11.063,98.011,-0.0648133
43.54,455.576,11.06,97.978,-0.0652117
43.59,456.076,11.056,97.946,-0.0668420
43.64,456.576,11.052,97.912,-0.0711501
43.69,457.076,11.048,97.876,-0.0694610
43.73,457.576,11.044,97.841,-0.0709151
43.78,458.076,11.04,97.805,-0.0729803
43.82,458.577,11.036,97.769,-0.0757135
43.87,459.077,11.031,97.729,-0.0794198
43.92,459.577,11.027,97.689,-0.0824042
43.97,460.077,11.022,97.646,-0.0859705
44.01,460.577,11.017,97.602,-0.0903625
44.06,461.077,11.012,97.557,-0.0941391
44.11,461.577,11.007,97.509,-0.0955579
44.16,462.077,11.001,97.458,-0.1130730
44.21,462.577,10.994,97.4,-0.1215550
44.26,463.077,10.988,97.34,-0.1243230
44.31,463.577,10.98,97.277,-0.1255420
44.36,464.078,10.973,97.208,-0.1554870
44.41,464.578,10.963,97.123,-0.1838370
44.45,465.078,10.953,97.032,-0.1761460
44.5,465.578,10.942,96.941,-0.1790930
44.55,466.078,10.932,96.848,-0.1813260
44.6,466.578,10.922,96.757,-0.1825140
44.65,467.078,10.911,96.665,-0.1954990
44.7,467.578,10.9,96.567,-0.1952140
44.75,468.078,10.889,96.471,-0.1923150
44.8,468.578,10.878,96.373,-0.1828350
44.85,469.078,10.867,96.275,-0.1941400
44.89,469.578,10.857,96.185,-0.1679640
44.94,470.079,10.847,96.1,-0.1827060
44.98,470.579,10.837,96.003,-0.1958540
45.03,471.079,10.825,95.9,-0.2188890
45.08,471.579,10.813,95.79,-0.2322610
45.13,472.079,10.799,95.669,-0.2491940
45.18,472.579,10.784,95.54,-0.2651340
45.23,473.079,10.769,95.408,-0.2661510
45.28,473.579,10.754,95.274,-0.2628850
45.33,474.079,10.74,95.145,-0.2641890
45.38,474.579,10.724,95.005,-0.2866980
45.43,475.079,10.708,94.86,-0.3012340
45.48,475.58,10.691,94.711,-0.3115720
45.53,476.08,10.672,94.547,-0.3293930
45.58,476.58,10.653,94.38,-0.3515800
45.63,477.08,10.633,94.201,-0.3620790
45.68,477.58,10.613,94.018,-0.3535650
45.73,478.08,10.591,93.83,-0.3860410
45.78,478.58,10.569,93.633,-0.4023560
45.83,479.08,10.546,93.43,-0.4134690
45.88,479.58,10.524,93.23,-0.4043520
45.93,480.08,10.499,93.014,-0.4488840
45.98,480.58,10.474,92.788,-0.4792060
46.04,481.081,10.446,92.546,-0.4906250
46.09,481.581,10.418,92.299,-0.4990640
46.14,482.081,10.39,92.045,-0.5359350
46.19,482.581,10.359,91.775,-0.5488080
46.24,483.081,10.329,91.503,-0.5569500
46.29,483.581,10.294,91.194,-0.6373440
46.34,484.081,10.259,90.887,-0.6554210
46.39,484.581,10.221,90.553,-0.6686920
46.44,485.081,10.183,90.213,-0.6612850
46.49,485.581,10.145,89.873,-0.7194900
46.54,486.081,10.102,89.498,-0.7704230
46.59,486.582,10.059,89.116,-0.7702420
46.65,487.082,10.012,88.698,-0.8855210
46.7,487.582,9.963,88.264,-0.8964670
46.75,488.082,9.913,87.821,-0.9218230
46.8,488.582,9.861,87.36,-0.9440390
46.85,489.082,9.807,86.881,-0.9761180
46.9,489.582,9.748,86.363,-1.05368
46.95,490.082,9.694,85.88,-0.9537750
47,490.582,9.639,85.394,-1.05688
47.05,491.082,9.577,84.847,-1.17976
47.1,491.582,9.512,84.27,-1.19208
47.15,492.083,9.445,83.677,-1.21814
47.2,492.583,9.376,83.063,-1.30067
47.25,493.083,9.303,82.414,-1.1945
47.3,493.583,9.233,81.799,-1.33092
47.35,494.083,9.159,81.137,-1.39564
47.4,494.583,9.077,80.419,-1.40046
47.45,495.083,8.987,79.616,-1.62076
47.5,495.583,8.897,78.824,-1.60576
47.55,496.083,8.807,78.026,-1.75777
47.6,496.583,8.704,77.108,-1.85279
47.65,497.083,8.617,76.341,-1.49519
47.71,497.583,8.528,75.554,-1.68135
47.76,498.084,8.432,74.698,-1.76221
47.81,498.584,8.328,73.782,-1.83637
47.86,499.084,8.225,72.867,-1.78199
47.91,499.584,8.12,71.932,-1.90376
47.96,500.084,8.011,70.975,-1.94299
48.01,500.584,7.895,69.944,-2.03738
48.06,501.084,7.779,68.911,-2.05953
48.11,501.584,7.659,67.85,-2.17822
48.16,502.084,7.536,66.766,-2.217
48.21,502.584,7.406,65.612,-2.23058
48.26,503.084,7.276,64.456,-2.50419
48.32,503.585,7.115,63.036,-3.15292
48.38,504.085,6.943,61.51,-2.72439
48.43,504.585,6.796,60.203,-2.52516
48.48,505.085,6.658,58.983,-2.4347
48.52,505.585,6.517,57.737,-2.39912
48.56,506.085,6.381,56.534,-2.53936
48.61,506.585,6.231,55.203,-2.61907
48.66,507.085,6.079,53.852,-2.83052
48.71,507.585,5.916,52.411,-2.94592
48.75,508.085,5.748,50.926,-3.17608
48.81,508.585,5.563,49.285,-3.33298
48.86,509.086,5.384,47.699,-3.37892
48.91,509.586,5.188,45.958,-3.40212
48.96,510.086,4.997,44.27,-3.23179
49,510.586,4.818,42.685,-3.28469
49.05,511.086,4.626,40.979,-3.41056
49.09,511.586,4.436,39.298,-3.5584
49.14,512.086,4.23,37.476,-3.63211
49.2,512.586,4.017,35.588,-3.6854
49.25,513.086,3.801,33.671,-5.6763
49.3,513.586,3.579,31.705,-3.81401
49.35,514.086,3.369,29.848,-3.56424
49.4,514.587,3.164,28.031,-3.58406
49.45,515.087,2.959,26.219,-3.9718
49.51,515.587,2.731,24.195,-4.04494
49.56,516.087,2.515,22.279,-3.69836
49.62,516.587,2.311,20.477,-3.34226
49.66,517.087,2.131,18.881,-3.1638
49.71,517.587,1.952,17.289,-3.17711
49.76,518.087,1.779,15.759,-2.94773
49.8,518.587,1.61,14.261,-2.93191
49.85,519.087,1.446,12.814,-2.85732
49.9,519.587,1.29,11.427,-2.8227
49.95,520.088,1.129,10.002,-2.79374
50,520.588,0.9730000,8.623,-2.62151
50.05,521.088,0.8270000,7.331,-2.48925
50.1,521.588,0.6910000,6.121,-2.39147
50.16,522.088,0.5610000,4.967,-2.1368
50.21,522.588,0.4520000,4.006,-1.66848
50.26,523.088,0.3690000,3.273,-1.34175
50.31,523.588,0.2980000,2.639,-1.15619
50.35,524.088,0.2380000,2.11,-0.9783830
50.4,524.588,0.1880000,1.669,-0.7978550
50.45,525.088,0.1480000,1.313,-0.6339290
50.5,525.588,0.1180000,1.042,-0.4772880
50.55,526.089,0.0950000,0.8380000,-0.3529650
50.61,526.589,0.0780000,0.6940000,-0.2362910
50.66,527.089,0.0680000,0.5990000,-0.1506390
50.71,527.589,0.0610000,0.5370000,-0.0910428
50.76,528.089,0.0570000,0.5020000,-0.0497658
50.81,528.589,0.0540000,0.4770000,-0.0506200
50.86,529.089,0.0510000,0.4520000,-0.0484822
50.9,529.589,0.0490000,0.4300000,-0.0426520
50.95,530.089,0.0460000,0.4100000,-0.0358902
51,530.589,0.0440000,0.3940000,-0.0295345
51.05,531.089,0.0430000,0.3800000,-0.0242360
51.1,531.59,0.0420000,0.3690000,-0.0189128
51.15,532.09,0.0410000,0.3610000,-0.0147888
51.2,532.59,0.0400000,0.3550000,-0.0113722
51.25,533.09,0.0390000,0.3500000,-0.0089435
51.3,533.59,0.0390000,0.3450000,-0.0074720
51.35,534.09,0.0390000,0.3420000,-0.0052206
51.4,534.59,0.0380000,0.3400000,-0.0045993
51.45,535.09,0.0380000,0.3380000,-0.0034652
51.5,535.59,0.0380000,0.3360000,-0.0028369
51.55,536.09,0.0380000,0.3350000,-0.0023974
51.6,536.59,0.0380000,0.3340000,-0.0014989
51.65,537.091,0.0380000,0.3330000,-0.0018511
51.7,537.591,0.0380000,0.3320000,-0.0017731
51.76,538.091,0.0370000,0.3320000,-0.0012235
51.81,538.591,0.0370000,0.3310000,-0.0005807
51.86,539.091,0.0370000,0.3310000,-0.0001152
51.9,539.591,0.0370000,0.3310000,-0.0001394
51.95,540.091,0.0370000,0.3310000,-0.0009042
52,540.591,0.0370000,0.3310000,-0.0004661
52.05,541.091,0.0370000,0.3310000,0.0000009
52.1,541.591,0.0370000,0.3300000,0.0002862
52.15,542.091,0.0370000,0.3300000,-0.0003821
52.2,542.592,0.0370000,0.3300000,0.0001265
52.25,543.092,0.0370000,0.3300000,-0.0000983
52.3,543.592,0.0370000,0.3300000,-0.0004828
52.35,544.092,0.0370000,0.3300000,-0.0001568
52.4,544.592,0.0370000,0.3300000,0.0001388
52.45,545.092,0.0370000,0.3300000,0.0001348
52.5,545.592,0.0370000,0.3300000,-0.0007786
52.55,546.092,0.0370000,0.3300000,0.0003433
52.6,546.592,0.0370000,0.3300000,0.0003340
52.65,547.092,0.0370000,0.3300000,0.0006229
52.7,547.592,0.0370000,0.3300000,0.0000720
52.75,548.093,0.0370000,0.3300000,0.0002056
52.8,548.593,0.0370000,0.3300000,-0.0002043
52.85,549.093,0.0370000,0.3300000,-0.0002059
52.9,549.593,0.0370000,0.3300000,0.0001178
52.95,550.093,0.0370000,0.3300000,0.0000260
53,550.593,0.0370000,0.3300000,0.0000245
53.05,551.093,0.0370000,0.3300000,-0.0002238
53.1,551.593,0.0370000,0.3300000,-0.0001976
53.15,552.093,0.0370000,0.3300000,0.0001887
53.2,552.593,0.0370000,0.3300000,-0.0004669
53.25,553.093,0.0370000,0.3300000,0.0003894
53.3,553.593,0.0370000,0.3300000,0.0000834
53.35,554.094,0.0370000,0.3300000,0.0001864
53.4,554.594,0.0370000,0.3300000,0.0000655
53.45,555.094,0.0370000,0.3300000,0.0005437
53.5,555.594,0.0370000,0.3310000,0.0001551
53.55,556.094,0.0370000,0.3300000,0.0000390
53.6,556.594,0.0370000,0.3310000,0.0003255
53.65,557.094,0.0370000,0.3310000,0.0001865
53.7,557.594,0.0370000,0.3310000,-0.0001239
53.75,558.094,0.0370000,0.3310000,-0.0005628
53.8,558.594,0.0370000,0.3310000,-0.0001268
53.85,559.094,0.0370000,0.3310000,-0.0001273
53.9,559.595,0.0370000,0.3310000,-0.0000225
53.95,560.095,0.0370000,0.3310000,0.0003563
54,560.595,0.0370000,0.3310000,0.0000183
54.05,561.095,0.0370000,0.3310000,-0.0002421
54.1,561.595,0.0370000,0.3310000,0.0000487
54.15,562.095,0.0370000,0.3310000,-0.0001788
54.2,562.595,0.0370000,0.3310000,0.0002457
54.25,563.095,0.0370000,0.3310000,0.0002351
54.3,563.595,0.0370000,0.3310000,-0.0001710
54.35,564.095,0.0370000,0.3310000,0.0001781
54.4,564.595,0.0370000,0.3310000,-0.0002205
54.45,565.096,0.0370000,0.3310000,-0.0002080
54.5,565.596,0.0370000,0.3310000,0.0002620
54.55,566.096,0.0370000,0.3310000,-0.0001440
54.6,566.596,0.0370000,0.3310000,-0.0000010
54.65,567.096,0.0370000,0.3310000,0.0003017
54.7,567.596,0.0370000,0.3310000,0.0001830
54.75,568.096,0.0370000,0.3310000,-0.0003735
54.8,568.596,0.0370000,0.3310000,0.0000811
54.85,569.096,0.0370000,0.3310000,0.0007216
54.9,569.596,0.0370000,0.3310000,-0.0000620
54.95,570.096,0.0370000,0.3310000,0.0000476
55,570.597,0.0370000,0.3310000,0.0005231
55.05,571.097,0.0370000,0.3310000,-0.0001662
55.1,571.597,0.0370000,0.3310000,-0.0003833
55.15,572.097,0.0370000,0.3310000,0.0000404
55.2,572.597,0.0370000,0.3310000,0.0004320
55.25,573.097,0.0370000,0.3310000,0.0002853
55.3,573.597,0.0370000,0.3310000,-0.0000606
55.35,574.097,0.0370000,0.3310000,-0.0001720
55.4,574.597,0.0370000,0.3310000,0.0002766
55.45,575.097,0.0370000,0.3310000,-0.0002784
55.5,575.597,0.0370000,0.3310000,0.0001605
55.55,576.098,0.0370000,0.3310000,-0.0001737
55.6,576.598,0.0370000,0.3310000,-0.0001803
55.65,577.098,0.0370000,0.3310000,-0.0005072
55.7,577.598,0.0370000,0.3310000,-0.0002468
55.75,578.098,0.0370000,0.3310000,0.0001321
55.8,578.598,0.0370000,0.3310000,-0.0001005
55.85,579.098,0.0370000,0.3310000,0.0002954
55.9,579.598,0.0370000,0.3310000,-0.0004082
55.95,580.098,0.0370000,0.3310000,0.0001434
55.99,580.598,0.0370000,0.3310000,0.0000730
56.04,581.098,0.0370000,0.3310000,-0.0001699
56.09,581.598,0.0370000,0.3310000,-0.0005532
56.14,582.099,0.0370000,0.3300000,0.0000650
56.19,582.599,0.0370000,0.3300000,0.0008511
56.24,583.099,0.0370000,0.3310000,-0.0002079
56.29,583.599,0.0370000,0.3310000,0.0003352
56.34,584.099,0.0370000,0.3310000,0.0003339
56.39,584.599,0.0370000,0.3300000,-0.0016612
56.44,585.099,0.0370000,0.3300000,-0.0001904
56.49,585.599,0.0370000,0.3300000,-0.0002648
56.54,586.099,0.0370000,0.3300000,-0.0003776
56.59,586.599,0.0370000,0.3300000,-0.0001398
56.64,587.099,0.0370000,0.3300000,-0.0001938
56.69,587.6,0.0370000,0.3300000,-0.0003802
56.74,588.1,0.0370000,0.3300000,-0.0003051
56.79,588.6,0.0370000,0.3300000,-0.0000445
56.84,589.1,0.0370000,0.3300000,-0.0002755
56.89,589.6,0.0370000,0.3300000,-0.0004800
56.93,590,0.0370000,0.3300000,-0.0004203