File: R/rHDPE_App/app/www/Output/TGA/Condensed_Data/Resin7_1_.csv
1.05,30,12.234,100.035,0.0082308
1.12,30.5001,12.234,100.037,0.0065643
1.18,31.0002,12.234,100.039,0.0026733
1.23,31.5003,12.234,100.04,-0.0004208
1.29,32.0004,12.235,100.042,0.0048376
1.35,32.5004,12.235,100.043,0.0020592
1.4,33.0005,12.235,100.044,0.0033222
1.46,33.5006,12.235,100.045,0.0031446
1.51,34.0007,12.235,100.046,0.0008558
1.57,34.5008,12.235,100.047,0.0027003
1.62,35.0009,12.235,100.048,0.0013403
1.68,35.501,12.236,100.049,-0.0001482
1.73,36.0011,12.236,100.05,0.0036405
1.78,36.5012,12.236,100.051,0.0004410
1.84,37.0013,12.236,100.052,0.0032250
1.89,37.5013,12.236,100.053,0.0020959
1.94,38.0014,12.236,100.054,0.0004868
2,38.5015,12.236,100.054,0.0016018
2.05,39.0016,12.236,100.055,0.0024193
2.1,39.5017,12.236,100.056,0.0006273
2.16,40.0018,12.236,100.056,-0.0002408
2.21,40.5019,12.237,100.057,0.0018257
2.26,41.002,12.237,100.057,0.0009108
2.31,41.5021,12.237,100.058,0.0007180
2.36,42.0021,12.237,100.059,0.0010991
2.42,42.5022,12.237,100.059,0.0021960
2.47,43.0023,12.237,100.06,0.0002858
2.52,43.5024,12.237,100.06,0.0003806
2.57,44.0025,12.237,100.061,0.0013315
2.63,44.5026,12.237,100.062,0.0016150
2.68,45.0027,12.237,100.062,0.0014677
2.73,45.5028,12.237,100.063,0.0008503
2.78,46.0029,12.237,100.064,0.0011335
2.83,46.5029,12.237,100.065,0.0018856
2.88,47.003,12.238,100.065,0.0017887
2.94,47.5031,12.238,100.066,0.0007525
2.99,48.0032,12.238,100.066,0.0009407
3.04,48.5033,12.238,100.067,0.0009859
3.09,49.0034,12.238,100.067,0.0012677
3.14,49.5035,12.238,100.068,0.0017377
3.19,50.0036,12.238,100.069,0.0016434
3.24,50.5037,12.238,100.069,0.0014088
3.29,51.0038,12.238,100.07,0.0006538
3.34,51.5038,12.238,100.071,0.0007457
3.39,52.0039,12.238,100.071,0.0007924
3.45,52.504,12.238,100.072,0.0011183
3.5,53.0041,12.238,100.072,0.0011185
3.55,53.5042,12.238,100.073,0.0014916
3.6,54.0043,12.239,100.073,0.0012080
3.65,54.5044,12.239,100.074,0.0013917
3.7,55.0045,12.239,100.075,0.0014844
3.75,55.5046,12.239,100.076,0.0011598
3.8,56.0046,12.239,100.076,0.0012999
3.85,56.5047,12.239,100.077,0.0009283
3.9,57.0048,12.239,100.077,0.0016230
3.95,57.5049,12.239,100.078,0.0010662
4.01,58.005,12.239,100.079,0.0011127
4.06,58.5051,12.239,100.079,0.0012037
4.11,59.0052,12.239,100.08,0.0005546
4.16,59.5053,12.239,100.08,0.0009235
4.21,60.0054,12.239,100.081,0.0007851
4.26,60.5054,12.24,100.081,0.0012011
4.31,61.0055,12.24,100.082,0.0012937
4.36,61.5056,12.24,100.083,0.0011476
4.41,62.0057,12.24,100.083,0.0011496
4.46,62.5058,12.24,100.084,0.0010616
4.51,63.0059,12.24,100.084,0.0011065
4.56,63.506,12.24,100.085,0.0011035
4.61,64.0061,12.24,100.085,0.0008268
4.66,64.5062,12.24,100.086,0.0008268
4.71,65.0063,12.24,100.086,0.0006441
4.76,65.5063,12.24,100.086,0.0007365
4.81,66.0064,12.24,100.087,0.0011056
4.86,66.5065,12.24,100.087,0.0010149
4.91,67.0066,12.24,100.088,0.0004617
4.96,67.5067,12.24,100.088,0.0008773
5.01,68.0068,12.24,100.089,0.0006453
5.06,68.5069,12.241,100.09,0.0008746
5.11,69.007,12.241,100.09,0.0011056
5.16,69.5071,12.241,100.091,0.0010592
5.21,70.0071,12.241,100.091,0.0016572
5.26,70.5072,12.241,100.092,0.0011958
5.31,71.0073,12.241,100.092,0.0011502
5.36,71.5074,12.241,100.093,0.0011048
5.41,72.0075,12.241,100.093,0.0014266
5.46,72.5076,12.241,100.094,0.0006899
5.51,73.0077,12.241,100.094,0.0011499
5.56,73.5078,12.241,100.095,0.0006432
5.61,74.0079,12.241,100.095,0.0005970
5.66,74.5079,12.241,100.096,0.0005978
5.71,75.008,12.241,100.096,0.0006907
5.76,75.5081,12.241,100.097,0.0009197
5.81,76.0082,12.241,100.097,0.0011934
5.86,76.5083,12.241,100.098,0.0015130
5.91,77.0084,12.242,100.098,0.0009164
5.96,77.5085,12.242,100.098,0.0004118
6.01,78.0086,12.242,100.099,0.0002746
6.06,78.5087,12.242,100.099,0.0000458
6.11,79.0088,12.242,100.1,0.0006413
6.17,79.5088,12.242,100.1,0.0006874
6.22,80.0089,12.242,100.101,0.0007793
6.27,80.509,12.242,100.101,0.0004126
6.32,81.0091,12.242,100.101,0.0006877
6.37,81.5092,12.242,100.101,0.0004580
6.42,82.0093,12.242,100.102,0.0009625
6.47,82.5094,12.242,100.102,0.0005506
6.52,83.0095,12.242,100.102,0.0005504
6.57,83.5096,12.242,100.103,0.0004582
6.62,84.0096,12.242,100.103,0.0003205
6.67,84.5097,12.242,100.103,0.0005951
6.72,85.0098,12.242,100.104,0.0009156
6.77,85.5099,12.242,100.104,0.0007326
6.82,86.01,12.242,100.104,0.0006416
6.87,86.5101,12.242,100.105,0.0008247
6.92,87.0102,12.242,100.105,0.0010998
6.97,87.5103,12.242,100.105,0.0007333
7.02,88.0104,12.242,100.106,0.0007350
7.07,88.5104,12.243,100.106,0.0011018
7.12,89.0105,12.243,100.106,0.0003209
7.17,89.5106,12.243,100.107,0.0006874
7.22,90.0107,12.243,100.107,0.0006411
7.27,90.5108,12.243,100.108,0.0002290
7.32,91.0109,12.243,100.108,0.0011007
7.37,91.511,12.243,100.108,0.0005508
7.42,92.0111,12.243,100.109,0.0000000
7.47,92.5112,12.243,100.109,0.0000000
7.52,93.0113,12.243,100.109,0.0000459
7.57,93.5113,12.243,100.109,0.0004105
7.62,94.0114,12.243,100.109,0.0002729
7.67,94.5115,12.243,100.109,0.0000909
7.72,95.0116,12.243,100.11,0.0004099
7.77,95.5117,12.243,100.11,0.0003653
7.82,96.0118,12.243,100.11,0.0005940
7.87,96.5119,12.243,100.11,0.0005939
7.92,97.012,12.243,100.11,0.0002742
7.97,97.5121,12.243,100.111,0.0003659
8.02,98.0121,12.243,100.111,0.0005948
8.07,98.5122,12.243,100.111,0.0004123
8.12,99.0123,12.243,100.111,0.0005510
8.17,99.5124,12.243,100.111,0.0003672
8.22,100.013,12.243,100.111,-0.0000918
8.27,100.513,12.243,100.111,0.0000458
8.32,101.013,12.243,100.111,0.0004586
8.37,101.513,12.243,100.112,0.0005504
8.42,102.013,12.243,100.112,0.0001836
8.47,102.513,12.243,100.112,0.0004134
8.52,103.013,12.243,100.112,0.0005972
8.57,103.513,12.243,100.112,0.0001838
8.62,104.013,12.243,100.113,0.0000921
8.67,104.513,12.243,100.113,0.0003698
8.72,105.013,12.243,100.113,0.0000929
8.77,105.513,12.243,100.113,0.0006023
8.82,106.014,12.243,100.113,0.0005029
8.87,106.514,12.243,100.114,-0.0000456
8.92,107.014,12.243,100.114,0.0006840
8.97,107.514,12.243,100.114,0.0000913
9.02,108.014,12.243,100.114,0.0000917
9.07,108.514,12.244,100.114,0.0001830
9.12,109.014,12.244,100.114,0.0005463
9.17,109.514,12.244,100.114,0.0000910
9.22,110.014,12.244,100.115,0.0005469
9.27,110.514,12.244,100.115,0.0001376
9.32,111.014,12.244,100.115,0.0000913
9.37,111.515,12.244,100.115,0.0000456
9.42,112.015,12.244,100.115,0.0000456
9.47,112.515,12.244,100.115,0.0001368
9.52,113.015,12.244,100.114,0.0001371
9.57,113.515,12.244,100.114,0.0000915
9.62,114.015,12.244,100.114,-0.0000914
9.67,114.515,12.244,100.114,0.0001371
9.72,115.015,12.244,100.115,0.0005027
9.77,115.515,12.244,100.115,-0.0002286
9.82,116.015,12.244,100.115,-0.0004112
9.87,116.515,12.244,100.114,-0.0001371
9.92,117.016,12.244,100.114,-0.0005937
9.97,117.516,12.244,100.114,0.0001371
10.02,118.016,12.244,100.114,-0.0001372
10.07,118.516,12.244,100.114,-0.0009601
10.12,119.016,12.244,100.114,-0.0003210
10.17,119.516,12.243,100.114,-0.0005058
10.22,120.016,12.243,100.114,-0.0004130
10.27,120.516,12.243,100.113,-0.0005055
10.32,121.016,12.243,100.113,-0.0000001
10.37,121.516,12.243,100.113,-0.0002741
10.42,122.016,12.243,100.113,0.0000000
10.47,122.517,12.243,100.113,0.0000912
10.52,123.017,12.243,100.113,0.0000456
10.57,123.517,12.243,100.113,-0.0003195
10.62,124.017,12.243,100.113,-0.0004570
10.67,124.517,12.243,100.113,-0.0000459
10.72,125.017,12.243,100.113,0.0002753
10.77,125.517,12.243,100.112,-0.0004143
10.82,126.017,12.243,100.112,-0.0005975
10.87,126.517,12.243,100.112,-0.0003664
10.92,127.017,12.243,100.112,-0.0004583
10.97,127.517,12.243,100.112,-0.0001372
11.02,128.018,12.243,100.112,-0.0004565
11.07,128.518,12.243,100.112,-0.0006848
11.12,129.018,12.243,100.111,-0.0006406
11.17,129.518,12.243,100.111,-0.0001829
11.22,130.018,12.243,100.111,-0.0005035
11.27,130.518,12.243,100.111,-0.0001376
11.32,131.018,12.243,100.111,-0.0005968
11.37,131.518,12.243,100.11,-0.0000918
11.42,132.018,12.243,100.11,0.0002295
11.47,132.518,12.243,100.11,-0.0005047
11.52,133.018,12.243,100.11,-0.0003677
11.57,133.518,12.243,100.11,-0.0003680
11.62,134.019,12.243,100.11,-0.0007804
11.67,134.519,12.243,100.109,-0.0003673
11.72,135.019,12.243,100.109,-0.0006874
11.77,135.519,12.243,100.109,-0.0005482
11.82,136.019,12.243,100.109,-0.0002741
11.87,136.519,12.243,100.108,-0.0004149
11.92,137.019,12.243,100.108,-0.0004126
11.97,137.519,12.243,100.108,-0.0004125
12.02,138.019,12.243,100.108,-0.0001853
12.07,138.519,12.243,100.107,-0.0002748
12.12,139.019,12.243,100.107,-0.0005479
12.17,139.52,12.243,100.107,0.0000456
12.22,140.02,12.243,100.107,-0.0004109
12.27,140.52,12.243,100.107,-0.0006861
12.32,141.02,12.243,100.106,-0.0006420
12.37,141.52,12.243,100.106,-0.0002292
12.42,142.02,12.242,100.106,-0.0005033
12.47,142.52,12.242,100.105,-0.0005496
12.52,143.02,12.242,100.105,0.0002756
12.57,143.52,12.242,100.105,-0.0005534
12.62,144.02,12.242,100.105,-0.0001834
12.67,144.52,12.242,100.105,-0.0006302
12.72,145.021,12.242,100.104,-0.0001345
12.77,145.521,12.242,100.104,-0.0005395
12.82,146.021,12.242,100.104,-0.0009054
12.87,146.521,12.242,100.103,-0.0009110
12.92,147.021,12.242,100.103,-0.0004587
12.97,147.521,12.242,100.103,-0.0006856
13.02,148.021,12.242,100.102,-0.0008668
13.07,148.521,12.242,100.102,-0.0006407
13.12,149.021,12.242,100.101,-0.0006490
13.17,149.521,12.242,100.101,-0.0006938
13.22,150.021,12.242,100.101,-0.0008270
13.27,150.522,12.242,100.1,-0.0007343
13.32,151.022,12.242,100.1,-0.0010065
13.37,151.522,12.242,100.099,-0.0015870
13.42,152.022,12.242,100.099,-0.0012641
13.47,152.522,12.242,100.098,-0.0016734
13.52,153.022,12.241,100.097,-0.0021850
13.57,153.522,12.241,100.095,-0.0029197
13.62,154.022,12.241,100.094,-0.0029344
13.67,154.522,12.241,100.092,-0.0032348
13.72,155.022,12.241,100.091,-0.0024926
13.77,155.522,12.24,100.089,-0.0029968
13.82,156.023,12.24,100.087,-0.0028722
13.87,156.523,12.24,100.086,-0.0026593
13.92,157.023,12.24,100.085,-0.0029277
13.97,157.523,12.24,100.083,-0.0024430
14.02,158.023,12.24,100.082,-0.0026935
14.07,158.523,12.239,100.081,-0.0024719
14.12,159.023,12.239,100.08,-0.0024140
14.17,159.523,12.239,100.079,-0.0019701
14.22,160.023,12.239,100.078,-0.0018939
14.27,160.523,12.239,100.076,-0.0018654
14.32,161.023,12.239,100.076,-0.0017391
14.37,161.523,12.239,100.075,-0.0016578
14.42,162.024,12.239,100.074,-0.0010138
14.47,162.524,12.239,100.073,-0.0006890
14.52,163.024,12.238,100.072,-0.0014201
14.57,163.524,12.238,100.072,-0.0008249
14.62,164.024,12.238,100.071,-0.0009186
14.67,164.524,12.238,100.071,-0.0010114
14.72,165.024,12.238,100.07,-0.0006902
14.77,165.524,12.238,100.07,-0.0007372
14.82,166.024,12.238,100.07,-0.0011072
14.87,166.524,12.238,100.069,-0.0009695
14.92,167.024,12.238,100.069,-0.0013113
14.97,167.525,12.238,100.068,-0.0010478
15.02,168.025,12.238,100.068,-0.0011866
15.06,168.525,12.238,100.067,-0.0012112
15.11,169.025,12.238,100.066,-0.0005478
15.16,169.525,12.238,100.066,-0.0011066
15.21,170.025,12.238,100.066,-0.0011120
15.26,170.525,12.238,100.065,-0.0007892
15.32,171.025,12.237,100.065,-0.0012541
15.37,171.525,12.237,100.064,-0.0010669
15.42,172.025,12.237,100.064,-0.0010678
15.47,172.525,12.237,100.063,-0.0006973
15.52,173.026,12.237,100.063,-0.0010698
15.57,173.526,12.237,100.062,-0.0008762
15.62,174.026,12.237,100.062,-0.0005544
15.67,174.526,12.237,100.061,-0.0005530
15.72,175.026,12.237,100.061,-0.0006860
15.77,175.526,12.237,100.061,-0.0005936
15.82,176.026,12.237,100.06,-0.0004600
15.87,176.526,12.237,100.06,-0.0001388
15.92,177.026,12.237,100.06,-0.0005995
15.97,177.526,12.237,100.06,-0.0006950
16.02,178.026,12.237,100.059,-0.0006999
16.07,178.527,12.237,100.059,-0.0012071
16.12,179.027,12.237,100.058,-0.0010708
16.17,179.527,12.237,100.058,-0.0004229
16.23,180.027,12.237,100.058,-0.0005915
16.27,180.527,12.237,100.057,-0.0006074
16.32,181.027,12.237,100.057,-0.0006581
16.37,181.527,12.236,100.056,-0.0012570
16.42,182.027,12.236,100.056,-0.0013675
16.47,182.527,12.236,100.055,-0.0010059
16.52,183.027,12.236,100.055,-0.0010889
16.57,183.527,12.236,100.054,-0.0005931
16.62,184.028,12.236,100.054,-0.0006434
16.67,184.528,12.236,100.053,-0.0010091
16.72,185.028,12.236,100.053,-0.0010483
16.77,185.528,12.236,100.052,-0.0011421
16.82,186.028,12.236,100.052,-0.0012397
16.87,186.528,12.236,100.052,-0.0012921
16.92,187.028,12.236,100.051,-0.0006464
16.97,187.528,12.236,100.051,-0.0014336
17.02,188.028,12.236,100.05,-0.0011094
17.07,188.528,12.236,100.05,-0.0010655
17.12,189.028,12.236,100.05,-0.0010234
17.17,189.528,12.236,100.049,-0.0006544
17.22,190.029,12.236,100.049,-0.0007956
17.28,190.529,12.235,100.048,-0.0007573
17.33,191.029,12.235,100.048,-0.0010136
17.38,191.529,12.235,100.047,-0.0009506
17.43,192.029,12.235,100.047,-0.0004546
17.48,192.529,12.235,100.046,-0.0009637
17.53,193.029,12.235,100.046,-0.0009703
17.58,193.529,12.235,100.045,-0.0009899
17.63,194.029,12.235,100.045,-0.0014791
17.68,194.529,12.235,100.044,-0.0008264
17.73,195.029,12.235,100.044,-0.0013300
17.78,195.53,12.235,100.043,-0.0012366
17.83,196.03,12.235,100.043,-0.0012847
17.88,196.53,12.235,100.042,-0.0011944
17.93,197.03,12.235,100.042,-0.0016508
17.98,197.53,12.235,100.041,-0.0015591
18.03,198.03,12.234,100.04,-0.0011498
18.08,198.53,12.234,100.04,-0.0011542
18.13,199.03,12.234,100.039,-0.0012624
18.18,199.53,12.234,100.038,-0.0012978
18.23,200.03,12.234,100.038,-0.0012491
18.28,200.53,12.234,100.037,-0.0008666
18.33,201.031,12.234,100.037,-0.0008265
18.38,201.531,12.234,100.036,-0.0011550
18.43,202.031,12.234,100.036,-0.0010402
18.48,202.531,12.234,100.035,-0.0007777
18.53,203.031,12.234,100.035,-0.0015167
18.58,203.531,12.234,100.034,-0.0010607
18.63,204.031,12.234,100.033,-0.0010157
18.68,204.531,12.234,100.033,-0.0007357
18.73,205.031,12.233,100.032,-0.0012870
18.78,205.531,12.233,100.031,-0.0014152
18.83,206.031,12.233,100.031,-0.0013379
18.88,206.532,12.233,100.03,-0.0017117
18.93,207.032,12.233,100.029,-0.0015434
18.97,207.532,12.233,100.029,-0.0013729
19.02,208.032,12.233,100.028,-0.0011494
19.08,208.532,12.233,100.027,-0.0016120
19.13,209.032,12.233,100.026,-0.0016177
19.18,209.532,12.233,100.026,-0.0017581
19.23,210.032,12.233,100.025,-0.0014866
19.28,210.532,12.233,100.024,-0.0018895
19.33,211.032,12.232,100.023,-0.0011858
19.38,211.532,12.232,100.023,-0.0009145
19.43,212.033,12.232,100.022,-0.0013615
19.48,212.533,12.232,100.021,-0.0014996
19.53,213.033,12.232,100.021,-0.0014617
19.58,213.533,12.232,100.02,-0.0013779
19.63,214.033,12.232,100.019,-0.0012893
19.68,214.533,12.232,100.019,-0.0010148
19.73,215.033,12.232,100.018,-0.0013876
19.78,215.533,12.232,100.017,-0.0013878
19.83,216.033,12.232,100.016,-0.0017101
19.88,216.533,12.231,100.016,-0.0021188
19.93,217.033,12.231,100.015,-0.0019774
19.98,217.533,12.231,100.014,-0.0015171
20.03,218.034,12.231,100.013,-0.0011506
20.08,218.534,12.231,100.013,-0.0012759
20.13,219.034,12.231,100.012,-0.0015277
20.18,219.534,12.231,100.011,-0.0015465
20.23,220.034,12.231,100.011,-0.0016166
20.28,220.534,12.231,100.01,-0.0015924
20.33,221.034,12.231,100.009,-0.0013905
20.38,221.534,12.231,100.008,-0.0017174
20.43,222.034,12.23,100.008,-0.0018691
20.48,222.534,12.23,100.007,-0.0018336
20.53,223.034,12.23,100.006,-0.0018407
20.58,223.535,12.23,100.005,-0.0020785
20.63,224.035,12.23,100.004,-0.0013143
20.68,224.535,12.23,100.003,-0.0013326
20.73,225.035,12.23,100.003,-0.0018326
20.78,225.535,12.23,100.002,-0.0015967
20.83,226.035,12.23,100.001,-0.0014462
20.88,226.535,12.23,100,-0.0015130
20.93,227.035,12.23,100,-0.0012915
20.98,227.535,12.229,99.999,-0.0018913
21.03,228.035,12.229,99.998,-0.0012423
21.08,228.535,12.229,99.997,-0.0015171
21.13,229.036,12.229,99.997,-0.0019314
21.18,229.536,12.229,99.996,-0.0016104
21.23,230.036,12.229,99.995,-0.0017043
21.28,230.536,12.229,99.994,-0.0021218
21.33,231.036,12.229,99.993,-0.0016154
21.38,231.536,12.229,99.992,-0.0022150
21.43,232.036,12.229,99.991,-0.0015683
21.48,232.536,12.228,99.991,-0.0012947
21.53,233.036,12.228,99.99,-0.0020376
21.58,233.536,12.228,99.989,-0.0012541
21.63,234.036,12.228,99.988,-0.0015295
21.68,234.537,12.228,99.987,-0.0016208
21.73,235.037,12.228,99.986,-0.0017609
21.78,235.537,12.228,99.985,-0.0020009
21.83,236.037,12.228,99.984,-0.0020118
21.88,236.537,12.228,99.983,-0.0019254
21.94,237.037,12.227,99.982,-0.0016000
21.99,237.537,12.227,99.981,-0.0015387
22.04,238.037,12.227,99.98,-0.0015466
22.09,238.537,12.227,99.98,-0.0015226
22.14,239.037,12.227,99.979,-0.0016990
22.19,239.537,12.227,99.978,-0.0014769
22.23,240.038,12.227,99.977,-0.0015752
22.28,240.538,12.227,99.976,-0.0015403
22.33,241.038,12.227,99.975,-0.0016203
22.38,241.538,12.226,99.974,-0.0018708
22.43,242.038,12.226,99.973,-0.0016065
22.48,242.538,12.226,99.972,-0.0015292
22.53,243.038,12.226,99.971,-0.0016765
22.58,243.538,12.226,99.971,-0.0019743
22.63,244.038,12.226,99.97,-0.0016474
22.68,244.538,12.226,99.969,-0.0020279
22.73,245.038,12.226,99.968,-0.0016489
22.78,245.538,12.226,99.967,-0.0019437
22.84,246.039,12.225,99.966,-0.0019656
22.88,246.539,12.225,99.965,-0.0019936
22.93,247.039,12.225,99.964,-0.0020670
22.98,247.539,12.225,99.963,-0.0021823
23.03,248.039,12.225,99.962,-0.0022833
23.08,248.539,12.225,99.961,-0.0021641
23.13,249.039,12.225,99.96,-0.0019497
23.18,249.539,12.225,99.959,-0.0023167
23.23,250.039,12.224,99.958,-0.0015924
23.28,250.539,12.224,99.957,-0.0022457
23.33,251.039,12.224,99.956,-0.0023137
23.38,251.54,12.224,99.955,-0.0019472
23.43,252.04,12.224,99.954,-0.0024560
23.48,252.54,12.224,99.953,-0.0022144
23.53,253.04,12.224,99.952,-0.0015372
23.58,253.54,12.224,99.951,-0.0017560
23.63,254.04,12.224,99.951,-0.0019510
23.68,254.54,12.223,99.949,-0.0019836
23.73,255.04,12.223,99.948,-0.0020720
23.78,255.54,12.223,99.947,-0.0016055
23.83,256.04,12.223,99.946,-0.0017685
23.88,256.54,12.223,99.945,-0.0016895
23.93,257.041,12.223,99.944,-0.0019289
23.98,257.541,12.223,99.943,-0.0017663
24.03,258.041,12.223,99.942,-0.0021560
24.08,258.541,12.222,99.941,-0.0022014
24.13,259.041,12.222,99.94,-0.0018622
24.18,259.541,12.222,99.939,-0.0022212
24.23,260.041,12.222,99.938,-0.0021779
24.28,260.541,12.222,99.937,-0.0020018
24.33,261.041,12.222,99.936,-0.0018711
24.38,261.541,12.222,99.935,-0.0020110
24.43,262.041,12.221,99.934,-0.0017792
24.48,262.542,12.221,99.933,-0.0023736
24.53,263.042,12.221,99.932,-0.0024703
24.58,263.542,12.221,99.93,-0.0021591
24.63,264.042,12.221,99.929,-0.0023493
24.68,264.542,12.221,99.928,-0.0022777
24.73,265.042,12.221,99.927,-0.0025244
24.78,265.542,12.221,99.926,-0.0020592
24.83,266.042,12.22,99.925,-0.0020131
24.88,266.542,12.22,99.924,-0.0019913
24.94,267.042,12.22,99.923,-0.0020370
24.99,267.542,12.22,99.922,-0.0020616
25.04,268.043,12.22,99.921,-0.0020355
25.09,268.543,12.22,99.92,-0.0018443
25.14,269.043,12.22,99.919,-0.0022923
25.19,269.543,12.22,99.918,-0.0022784
25.24,270.043,12.219,99.917,-0.0025652
25.29,270.543,12.219,99.916,-0.0027702
25.34,271.043,12.219,99.915,-0.0021217
25.38,271.543,12.219,99.914,-0.0023407
25.43,272.043,12.219,99.912,-0.0025263
25.48,272.543,12.219,99.911,-0.0022417
25.53,273.043,12.219,99.91,-0.0023294
25.58,273.543,12.218,99.909,-0.0021242
25.63,274.044,12.218,99.908,-0.0023746
25.68,274.544,12.218,99.907,-0.0022625
25.73,275.044,12.218,99.906,-0.0024590
25.78,275.544,12.218,99.904,-0.0020604
25.83,276.044,12.218,99.903,-0.0021101
25.88,276.544,12.218,99.902,-0.0021160
25.93,277.044,12.217,99.901,-0.0020946
25.98,277.544,12.217,99.9,-0.0021038
26.03,278.044,12.217,99.899,-0.0023682
26.07,278.544,12.217,99.898,-0.0027968
26.12,279.044,12.217,99.897,-0.0022391
26.17,279.545,12.217,99.896,-0.0023941
26.22,280.045,12.217,99.895,-0.0023919
26.28,280.545,12.217,99.893,-0.0024423
26.33,281.045,12.216,99.892,-0.0022120
26.38,281.545,12.216,99.891,-0.0023076
26.43,282.045,12.216,99.89,-0.0023472
26.48,282.545,12.216,99.889,-0.0024424
26.53,283.045,12.216,99.887,-0.0026763
26.58,283.545,12.216,99.886,-0.0023092
26.63,284.045,12.216,99.885,-0.0022222
26.68,284.545,12.215,99.884,-0.0019956
26.73,285.046,12.215,99.883,-0.0022761
26.78,285.546,12.215,99.882,-0.0018814
26.83,286.046,12.215,99.881,-0.0023416
26.88,286.546,12.215,99.879,-0.0024537
26.93,287.046,12.215,99.878,-0.0027637
26.98,287.546,12.215,99.877,-0.0024806
27.03,288.046,12.214,99.876,-0.0026794
27.08,288.546,12.214,99.875,-0.0026693
27.13,289.046,12.214,99.874,-0.0028241
27.18,289.546,12.214,99.872,-0.0024839
27.23,290.046,12.214,99.871,-0.0022276
27.28,290.547,12.214,99.87,-0.0024964
27.33,291.047,12.214,99.869,-0.0026306
27.38,291.547,12.213,99.868,-0.0022313
27.43,292.047,12.213,99.866,-0.0023832
27.48,292.547,12.213,99.865,-0.0029493
27.53,293.047,12.213,99.864,-0.0025416
27.58,293.547,12.213,99.863,-0.0025276
27.63,294.047,12.213,99.862,-0.0022906
27.68,294.547,12.212,99.86,-0.0026630
27.73,295.047,12.212,99.859,-0.0024478
27.78,295.547,12.212,99.858,-0.0025285
27.83,296.048,12.212,99.857,-0.0029493
27.88,296.548,12.212,99.855,-0.0022652
27.93,297.048,12.212,99.854,-0.0021845
27.98,297.548,12.212,99.853,-0.0024378
28.03,298.048,12.211,99.852,-0.0024552
28.08,298.548,12.211,99.851,-0.0024906
28.13,299.048,12.211,99.849,-0.0025793
28.18,299.548,12.211,99.848,-0.0026532
28.23,300.048,12.211,99.846,-0.0024876
28.28,300.548,12.211,99.845,-0.0024110
28.33,301.048,12.21,99.844,-0.0027082
28.38,301.548,12.21,99.843,-0.0029178
28.43,302.049,12.21,99.841,-0.0026718
28.48,302.549,12.21,99.84,-0.0028598
28.53,303.049,12.21,99.839,-0.0025000
28.58,303.549,12.21,99.837,-0.0025669
28.63,304.049,12.21,99.836,-0.0026230
28.68,304.549,12.209,99.835,-0.0024633
28.73,305.049,12.209,99.833,-0.0026553
28.78,305.549,12.209,99.832,-0.0028662
28.83,306.049,12.209,99.831,-0.0028451
28.88,306.549,12.209,99.829,-0.0026071
28.93,307.049,12.209,99.828,-0.0026543
28.98,307.55,12.208,99.826,-0.0029396
29.03,308.05,12.208,99.825,-0.0030271
29.08,308.55,12.208,99.824,-0.0026240
29.13,309.05,12.208,99.822,-0.0027110
29.18,309.55,12.208,99.821,-0.0025339
29.23,310.05,12.207,99.82,-0.0023266
29.28,310.55,12.207,99.818,-0.0030292
29.33,311.05,12.207,99.817,-0.0027260
29.38,311.55,12.207,99.815,-0.0027741
29.43,312.05,12.207,99.814,-0.0029347
29.48,312.55,12.207,99.813,-0.0025069
29.53,313.051,12.206,99.811,-0.0033870
29.58,313.551,12.206,99.81,-0.0032199
29.63,314.051,12.206,99.808,-0.0030008
29.68,314.551,12.206,99.807,-0.0031537
29.74,315.051,12.206,99.805,-0.0024103
29.79,315.551,12.206,99.804,-0.0028519
29.84,316.051,12.205,99.802,-0.0029375
29.88,316.551,12.205,99.801,-0.0026882
29.93,317.051,12.205,99.799,-0.0028674
29.98,317.551,12.205,99.798,-0.0031571
30.03,318.051,12.205,99.797,-0.0033134
30.08,318.552,12.205,99.795,-0.0033321
30.13,319.052,12.204,99.794,-0.0032611
30.18,319.552,12.204,99.792,-0.0032659
30.23,320.052,12.204,99.791,-0.0033914
30.28,320.552,12.204,99.789,-0.0031119
30.33,321.052,12.204,99.787,-0.0031119
30.38,321.552,12.203,99.786,-0.0028493
30.43,322.052,12.203,99.784,-0.0034613
30.48,322.552,12.203,99.783,-0.0030584
30.53,323.052,12.203,99.781,-0.0033670
30.59,323.552,12.203,99.779,-0.0034010
30.63,324.053,12.202,99.778,-0.0031027
30.68,324.553,12.202,99.776,-0.0029529
30.73,325.053,12.202,99.775,-0.0031278
30.78,325.553,12.202,99.774,-0.0026450
30.83,326.053,12.202,99.772,-0.0032736
30.88,326.553,12.201,99.77,-0.0032407
30.93,327.053,12.201,99.769,-0.0037767
30.98,327.553,12.201,99.767,-0.0038581
31.03,328.053,12.201,99.765,-0.0033945
31.08,328.553,12.201,99.763,-0.0032526
31.13,329.053,12.2,99.762,-0.0032010
31.18,329.553,12.2,99.76,-0.0034785
31.23,330.054,12.2,99.758,-0.0030734
31.28,330.554,12.2,99.757,-0.0036731
31.33,331.054,12.2,99.755,-0.0032689
31.38,331.554,12.199,99.753,-0.0030426
31.43,332.054,12.199,99.752,-0.0032779
31.48,332.554,12.199,99.75,-0.0031423
31.53,333.054,12.199,99.748,-0.0035120
31.58,333.554,12.199,99.747,-0.0036935
31.63,334.054,12.198,99.745,-0.0029547
31.68,334.554,12.198,99.743,-0.0036493
31.73,335.054,12.198,99.741,-0.0035550
31.78,335.555,12.198,99.739,-0.0034090
31.83,336.055,12.197,99.738,-0.0028667
31.88,336.555,12.197,99.736,-0.0034890
31.94,337.055,12.197,99.734,-0.0032230
31.99,337.555,12.197,99.732,-0.0034981
32.04,338.055,12.197,99.73,-0.0034592
32.09,338.555,12.196,99.729,-0.0034709
32.14,339.055,12.196,99.727,-0.0032206
32.19,339.555,12.196,99.725,-0.0033486
32.24,340.055,12.196,99.723,-0.0033667
32.29,340.555,12.195,99.721,-0.0036940
32.34,341.056,12.195,99.72,-0.0036153
32.39,341.556,12.195,99.718,-0.0035695
32.44,342.056,12.195,99.716,-0.0037172
32.49,342.556,12.195,99.714,-0.0037205
32.54,343.056,12.194,99.712,-0.0037583
32.59,343.556,12.194,99.71,-0.0038693
32.64,344.056,12.194,99.708,-0.0047223
32.7,344.556,12.194,99.706,-0.0042918
32.76,345.056,12.193,99.703,-0.0053734
32.82,345.556,12.193,99.701,-0.0039251
32.87,346.056,12.193,99.699,-0.0034453
32.91,346.557,12.193,99.698,-0.0034022
32.96,347.057,12.192,99.696,-0.0041680
33.01,347.557,12.192,99.694,-0.0037996
33.05,348.057,12.192,99.692,-0.0039312
33.1,348.557,12.192,99.69,-0.0040401
33.15,349.057,12.191,99.688,-0.0036486
33.2,349.557,12.191,99.686,-0.0039533
33.24,350.057,12.191,99.684,-0.0039405
33.29,350.557,12.191,99.682,-0.0041682
33.34,351.057,12.19,99.68,-0.0042524
33.39,351.557,12.19,99.677,-0.0046105
33.44,352.058,12.19,99.675,-0.0050874
33.49,352.558,12.19,99.673,-0.0045660
33.54,353.058,12.189,99.671,-0.0046112
33.59,353.558,12.189,99.668,-0.0043025
33.64,354.058,12.189,99.666,-0.0044505
33.69,354.558,12.188,99.664,-0.0043740
33.74,355.058,12.188,99.662,-0.0045439
33.79,355.558,12.188,99.659,-0.0047332
33.84,356.058,12.188,99.657,-0.0050593
33.89,356.558,12.187,99.654,-0.0051048
33.94,357.058,12.187,99.652,-0.0055231
33.99,357.558,12.187,99.649,-0.0048859
34.04,358.059,12.186,99.647,-0.0044823
34.09,358.559,12.186,99.645,-0.0049800
34.14,359.059,12.186,99.642,-0.0050685
34.19,359.559,12.186,99.64,-0.0045020
34.24,360.059,12.185,99.637,-0.0049629
34.29,360.559,12.185,99.635,-0.0048345
34.34,361.059,12.185,99.632,-0.0052808
34.39,361.559,12.184,99.63,-0.0048535
34.44,362.059,12.184,99.627,-0.0048373
34.49,362.559,12.184,99.624,-0.0050855
34.54,363.059,12.183,99.622,-0.0051775
34.59,363.56,12.183,99.619,-0.0050817
34.64,364.06,12.183,99.617,-0.0055383
34.69,364.56,12.182,99.614,-0.0052265
34.74,365.06,12.182,99.611,-0.0053444
34.79,365.56,12.182,99.609,-0.0055221
34.84,366.06,12.181,99.606,-0.0054775
34.89,366.56,12.181,99.603,-0.0053405
34.94,367.06,12.181,99.601,-0.0054487
34.99,367.56,12.18,99.598,-0.0060147
35.04,368.06,12.18,99.595,-0.0053819
35.09,368.56,12.18,99.592,-0.0056777
35.14,369.061,12.179,99.589,-0.0058850
35.19,369.561,12.179,99.586,-0.0058605
35.24,370.061,12.179,99.583,-0.0057014
35.29,370.561,12.178,99.58,-0.0056818
35.34,371.061,12.178,99.577,-0.0056808
35.39,371.561,12.178,99.574,-0.0062731
35.44,372.061,12.177,99.571,-0.0062384
35.49,372.561,12.177,99.568,-0.0063747
35.54,373.061,12.176,99.565,-0.0063726
35.59,373.561,12.176,99.562,-0.0064596
35.64,374.061,12.176,99.559,-0.0064421
35.69,374.562,12.175,99.555,-0.0067741
35.74,375.062,12.175,99.552,-0.0068689
35.79,375.562,12.174,99.549,-0.0067655
35.84,376.062,12.174,99.545,-0.0069688
35.89,376.562,12.174,99.542,-0.0067680
35.94,377.062,12.173,99.539,-0.0069342
35.99,377.562,12.173,99.535,-0.0071534
36.04,378.062,12.172,99.532,-0.0069739
36.09,378.562,12.172,99.528,-0.0073973
36.14,379.062,12.171,99.525,-0.0073060
36.19,379.562,12.171,99.521,-0.0075092
36.24,380.063,12.171,99.517,-0.0075688
36.29,380.563,12.17,99.513,-0.0075910
36.34,381.063,12.17,99.51,-0.0076364
36.39,381.563,12.169,99.506,-0.0076280
36.44,382.063,12.169,99.502,-0.0077132
36.49,382.563,12.168,99.498,-0.0073905
36.54,383.063,12.168,99.494,-0.0073812
36.59,383.563,12.167,99.49,-0.0078556
36.64,384.063,12.167,99.486,-0.0081651
36.69,384.563,12.166,99.482,-0.0079971
36.74,385.063,12.166,99.478,-0.0081025
36.79,385.563,12.165,99.474,-0.0085053
36.84,386.064,12.165,99.47,-0.0092779
36.89,386.564,12.164,99.465,-0.0089875
36.94,387.064,12.164,99.461,-0.0088419
36.99,387.564,12.163,99.457,-0.0090909
37.04,388.064,12.163,99.452,-0.0088140
37.09,388.564,12.162,99.448,-0.0096067
37.14,389.064,12.161,99.443,-0.0086535
37.19,389.564,12.161,99.438,-0.0092811
37.24,390.064,12.16,99.434,-0.0095294
37.29,390.564,12.16,99.429,-0.0095064
37.34,391.064,12.159,99.424,-0.0091982
37.39,391.565,12.159,99.419,-0.0092865
37.44,392.065,12.158,99.414,-0.0101570
37.49,392.565,12.157,99.409,-0.0103974
37.54,393.065,12.157,99.404,-0.0107834
37.59,393.565,12.156,99.399,-0.0103146
37.64,394.065,12.155,99.393,-0.0103145
37.69,394.565,12.155,99.388,-0.0106187
37.74,395.065,12.154,99.383,-0.0110856
37.79,395.565,12.153,99.377,-0.0107064
37.84,396.065,12.153,99.372,-0.0112063
37.89,396.565,12.152,99.367,-0.0107039
37.94,397.066,12.151,99.361,-0.0113884
37.99,397.566,12.151,99.355,-0.0118810
38.04,398.066,12.15,99.35,-0.0113945
38.09,398.566,12.149,99.344,-0.0114046
38.13,399.066,12.149,99.338,-0.0111151
38.18,399.566,12.148,99.332,-0.0113945
38.23,400.066,12.147,99.327,-0.0118896
38.28,400.566,12.146,99.321,-0.0115201
38.33,401.066,12.146,99.315,-0.0117044
38.38,401.566,12.145,99.309,-0.0120389
38.43,402.066,12.144,99.303,-0.0121554
38.48,402.567,12.144,99.297,-0.0119610
38.53,403.067,12.143,99.291,-0.0125456
38.58,403.567,12.142,99.285,-0.0120753
38.63,404.067,12.141,99.279,-0.0129763
38.68,404.567,12.141,99.272,-0.0130020
38.73,405.067,12.14,99.266,-0.0134101
38.78,405.567,12.139,99.259,-0.0124470
38.83,406.067,12.138,99.253,-0.0138398
38.89,406.567,12.137,99.246,-0.0139948
38.94,407.067,12.137,99.239,-0.0141924
38.99,407.567,12.136,99.232,-0.0143393
39.04,408.068,12.135,99.225,-0.0139504
39.09,408.568,12.134,99.218,-0.0136573
39.14,409.068,12.133,99.211,-0.0140092
39.19,409.568,12.132,99.204,-0.0138475
39.23,410.068,12.131,99.198,-0.0138620
39.28,410.568,12.131,99.19,-0.0143976
39.33,411.068,12.13,99.183,-0.0145811
39.38,411.568,12.129,99.176,-0.0149461
39.43,412.068,12.128,99.168,-0.0153553
39.48,412.568,12.127,99.161,-0.0153192
39.53,413.068,12.126,99.153,-0.0159779
39.58,413.568,12.125,99.145,-0.0159418
39.63,414.069,12.124,99.136,-0.0164759
39.68,414.569,12.123,99.128,-0.0172398
39.73,415.069,12.122,99.119,-0.0176946
39.78,415.569,12.121,99.11,-0.0180063
39.83,416.069,12.12,99.102,-0.0178903
39.88,416.569,12.119,99.093,-0.0185581
39.93,417.069,12.117,99.084,-0.0187488
39.98,417.569,12.116,99.074,-0.0184944
40.03,418.069,12.115,99.065,-0.0193521
40.08,418.569,12.114,99.055,-0.0199926
40.14,419.069,12.113,99.045,-0.0199054
40.19,419.57,12.112,99.035,-0.0207591
40.24,420.07,12.11,99.025,-0.0214081
40.29,420.57,12.109,99.013,-0.0249837
40.35,421.07,12.107,99.001,-0.0207100
40.4,421.57,12.106,98.991,-0.0206540
40.44,422.07,12.105,98.981,-0.0206573
40.49,422.57,12.104,98.97,-0.0209005
40.54,423.07,12.102,98.96,-0.0227078
40.59,423.57,12.101,98.948,-0.0229730
40.63,424.07,12.099,98.936,-0.0237715
40.68,424.57,12.098,98.924,-0.0239547
40.73,425.071,12.097,98.912,-0.0253617
40.78,425.571,12.095,98.899,-0.0257133
40.83,426.071,12.093,98.886,-0.0261241
40.88,426.571,12.092,98.873,-0.0267857
40.93,427.071,12.09,98.859,-0.0275397
40.98,427.571,12.088,98.846,-0.0276407
41.03,428.071,12.087,98.832,-0.0289835
41.08,428.571,12.085,98.818,-0.0296330
41.13,429.071,12.083,98.802,-0.0305270
41.18,429.571,12.081,98.787,-0.0313708
41.23,430.071,12.079,98.771,-0.0324449
41.28,430.572,12.077,98.755,-0.0326366
41.33,431.072,12.075,98.739,-0.0330102
41.38,431.572,12.073,98.722,-0.0339455
41.43,432.072,12.071,98.705,-0.0353341
41.48,432.572,12.069,98.687,-0.0363059
41.53,433.072,12.067,98.669,-0.0366820
41.58,433.572,12.064,98.65,-0.0379823
41.63,434.072,12.062,98.63,-0.0387344
41.68,434.572,12.06,98.611,-0.0395872
41.73,435.072,12.057,98.591,-0.0402872
41.78,435.572,12.055,98.571,-0.0412697
41.83,436.073,12.052,98.55,-0.0424485
41.88,436.573,12.05,98.528,-0.0430256
41.93,437.073,12.047,98.507,-0.0440040
41.98,437.573,12.044,98.484,-0.0458716
42.03,438.073,12.041,98.461,-0.0474090
42.08,438.573,12.038,98.437,-0.0483069
42.13,439.073,12.035,98.412,-0.0497973
42.18,439.573,12.032,98.387,-0.0515004
42.23,440.073,12.029,98.36,-0.0531336
42.28,440.573,12.026,98.334,-0.0549769
42.33,441.073,12.022,98.307,-0.0548589
42.39,441.573,12.019,98.278,-0.0566692
42.44,442.074,12.015,98.25,-0.0579583
42.49,442.574,12.012,98.22,-0.0591487
42.54,443.074,12.008,98.191,-0.0610979
42.59,443.574,12.005,98.16,-0.0616956
42.64,444.074,12.001,98.129,-0.0626035
42.69,444.574,11.997,98.097,-0.0638991
42.74,445.074,11.993,98.064,-0.0664743
42.79,445.574,11.989,98.03,-0.0690687
42.84,446.074,11.984,97.996,-0.0711257
42.89,446.574,11.98,97.96,-0.0731921
42.94,447.074,11.976,97.923,-0.0751894
42.99,447.575,11.971,97.884,-0.0776372
43.04,448.075,11.966,97.845,-0.0791605
43.09,448.575,11.961,97.805,-0.0809241
43.14,449.075,11.956,97.764,-0.0837760
43.19,449.575,11.951,97.722,-0.0856158
43.24,450.075,11.946,97.679,-0.0882462
43.29,450.575,11.94,97.633,-0.0979213
43.34,451.075,11.934,97.585,-0.1055560
43.39,451.575,11.928,97.534,-0.1104030
43.44,452.075,11.921,97.478,-0.1088360
43.49,452.575,11.914,97.42,-0.1139050
43.54,453.076,11.907,97.363,-0.1230560
43.59,453.576,11.9,97.302,-0.1277180
43.64,454.076,11.892,97.242,-0.1232470
43.69,454.576,11.884,97.177,-0.1305080
43.74,455.076,11.876,97.111,-0.1326480
43.79,455.576,11.868,97.044,-0.1351970
43.84,456.076,11.86,96.976,-0.1364800
43.89,456.576,11.851,96.907,-0.1367380
43.94,457.076,11.843,96.836,-0.1480360
43.99,457.576,11.834,96.764,-0.1520220
44.04,458.076,11.825,96.691,-0.1549950
44.09,458.577,11.816,96.616,-0.1558580
44.14,459.077,11.806,96.541,-0.1560130
44.19,459.577,11.797,96.462,-0.1580180
44.24,460.077,11.787,96.384,-0.1665590
44.29,460.577,11.777,96.303,-0.1668370
44.34,461.077,11.767,96.22,-0.1610070
44.39,461.577,11.757,96.133,-0.1873250
44.44,462.077,11.744,96.03,-0.2082940
44.49,462.577,11.731,95.926,-0.2131200
44.54,463.077,11.719,95.822,-0.1958220
44.59,463.577,11.707,95.724,-0.1932100
44.64,464.078,11.695,95.629,-0.1965640
44.69,464.578,11.683,95.529,-0.1976280
44.74,465.078,11.671,95.434,-0.1972290
44.79,465.578,11.659,95.336,-0.1890070
44.84,466.078,11.647,95.24,-0.1962760
44.89,466.578,11.636,95.144,-0.1930280
44.94,467.078,11.624,95.048,-0.2008680
44.99,467.578,11.611,94.946,-0.2116510
45.04,468.078,11.599,94.845,-0.2041370
45.09,468.578,11.587,94.745,-0.2068860
45.14,469.078,11.574,94.642,-0.2039370
45.19,469.578,11.562,94.539,-0.2286580
45.24,470.079,11.548,94.427,-0.2184010
45.29,470.579,11.534,94.314,-0.2266890
45.34,471.079,11.521,94.204,-0.1888560
45.39,471.579,11.51,94.117,-0.1693850
45.44,472.079,11.499,94.029,-0.1725700
45.5,472.579,11.488,93.936,-0.1990710
45.55,473.079,11.475,93.833,-0.2129400
45.6,473.579,11.462,93.724,-0.2237810
45.65,474.079,11.448,93.609,-0.2362060
45.7,474.579,11.433,93.488,-0.2667710
45.75,475.079,11.417,93.357,-0.2646720
45.79,475.58,11.401,93.222,-0.2817890
45.84,476.08,11.382,93.073,-0.2905250
45.89,476.58,11.365,92.93,-0.2926290
45.94,477.08,11.347,92.78,-0.3106790
45.99,477.58,11.326,92.616,-0.3442380
46.04,478.08,11.305,92.439,-0.3558660
46.09,478.58,11.282,92.253,-0.3882380
46.14,479.08,11.258,92.053,-0.3924790
46.19,479.58,11.233,91.854,-0.3987660
46.24,480.08,11.21,91.66,-0.3682480
46.29,480.58,11.188,91.481,-0.3646460
46.34,481.081,11.164,91.283,-0.4156380
46.39,481.581,11.139,91.081,-0.4457390
46.44,482.081,11.108,90.83,-0.5239570
46.49,482.581,11.076,90.567,-0.5059090
46.54,483.081,11.047,90.328,-0.4954640
46.59,483.581,11.015,90.071,-0.5407580
46.64,484.081,10.982,89.8,-0.5895820
46.69,484.581,10.947,89.515,-0.5670770
46.74,485.081,10.912,89.228,-0.5876490
46.79,485.581,10.875,88.921,-0.6026530
46.84,486.081,10.839,88.626,-0.6228570
46.89,486.582,10.798,88.293,-0.6757440
46.94,487.082,10.755,87.945,-0.7513250
46.99,487.582,10.705,87.536,-0.7800500
47.04,488.082,10.656,87.13,-0.8039280
47.09,488.582,10.609,86.749,-0.8006590
47.14,489.082,10.557,86.32,-0.8944780
47.19,489.582,10.501,85.87,-0.8605220
47.24,490.082,10.446,85.415,-0.8809790
47.29,490.582,10.391,84.966,-0.9007190
47.34,491.082,10.332,84.484,-0.9949210
47.38,491.582,10.27,83.98,-0.9358720
47.43,492.083,10.205,83.448,-1.08409
47.48,492.583,10.139,82.908,-1.17714
47.53,493.083,10.066,82.307,-1.2064
47.58,493.583,9.994,81.717,-1.29335
47.63,494.083,9.916,81.083,-1.25051
47.68,494.583,9.84,80.457,-1.37564
47.74,495.083,9.756,79.775,-1.32956
47.79,495.583,9.679,79.143,-1.43394
47.84,496.083,9.591,78.427,-1.5163
47.88,496.583,9.499,77.676,-1.54923
47.93,497.083,9.408,76.925,-1.53927
47.98,497.583,9.318,76.19,-1.47561
48.03,498.084,9.216,75.361,-1.65054
48.08,498.584,9.115,74.534,-1.70163
48.13,499.084,9.005,73.636,-1.76816
48.18,499.584,8.891,72.703,-1.90605
48.23,500.084,8.771,71.722,-1.92831
48.28,500.584,8.649,70.721,-2.00766
48.33,501.084,8.528,69.732,-2.1717
48.38,501.584,8.393,68.629,-2.12947
48.43,502.084,8.262,67.558,-2.23968
48.48,502.584,8.123,66.421,-2.24683
48.53,503.084,7.972,65.19,-2.41331
48.58,503.585,7.825,63.981,-2.33288
48.63,504.085,7.679,62.788,-2.55948
48.68,504.585,7.52,61.492,-2.46458
48.73,505.085,7.364,60.213,-2.66131
48.78,505.585,7.195,58.832,-2.83558
48.83,506.085,7.022,57.42,-2.8271
48.88,506.585,6.855,56.052,-2.82603
48.93,507.085,6.676,54.591,-3.02462
48.98,507.585,6.49,53.069,-3.08474
49.03,508.085,6.307,51.569,-3.10852
49.08,508.585,6.117,50.021,-3.10747
49.13,509.086,5.924,48.436,-3.18006
49.18,509.586,5.722,46.789,-3.17802
49.23,510.086,5.521,45.141,-3.50571
49.28,510.586,5.307,43.395,-3.22544
49.33,511.086,5.106,41.751,-3.22759
49.37,511.586,4.904,40.101,-3.46629
49.42,512.086,4.693,38.377,-3.25542
49.47,512.586,4.495,36.756,-3.58938
49.52,513.086,4.278,34.981,-3.53737
49.57,513.586,4.054,33.152,-3.77199
49.62,514.086,3.839,31.39,-3.43117
49.67,514.587,3.627,29.657,-3.56176
49.73,515.087,3.405,27.845,-3.58237
49.78,515.587,3.194,26.117,-3.24816
49.83,516.087,2.982,24.384,-3.7303
49.88,516.587,2.758,22.551,-3.34247
49.93,517.087,2.554,20.886,-3.51486
49.98,517.587,2.349,19.206,-3.29566
50.03,518.087,2.156,17.629,-3.1679
50.08,518.587,1.95,15.949,-3.2728
50.13,519.087,1.761,14.398,-2.61402
50.18,519.587,1.596,13.05,-2.7054
50.23,520.088,1.432,11.71,-2.71753
50.28,520.588,1.27,10.384,-2.44082
50.33,521.088,1.124,9.191,-2.33446
50.38,521.588,0.9850000,8.055,-2.11927
50.43,522.088,0.8560000,7,-2.03168
50.48,522.588,0.7380000,6.035,-1.82103
50.53,523.088,0.6330000,5.177,-1.62234
50.58,523.588,0.5360000,4.386,-1.47022
50.63,524.088,0.4520000,3.693,-1.27605
50.68,524.588,0.3790000,3.097,-1.07238
50.73,525.088,0.3160000,2.581,-0.9024760
50.78,525.588,0.2660000,2.173,-0.7254050
50.83,526.089,0.2250000,1.843,-0.5712060
50.88,526.589,0.1930000,1.581,-0.4446820
50.93,527.089,0.1690000,1.38,-0.3362810
50.98,527.589,0.1500000,1.23,-0.2559040
51.03,528.089,0.1370000,1.121,-0.1764580
51.08,528.589,0.1280000,1.046,-0.1188860
51.13,529.089,0.1220000,0.9970000,-0.0772199
51.18,529.589,0.1180000,0.9670000,-0.0476497
51.24,530.089,0.1150000,0.9420000,-0.0497244
51.29,530.589,0.1120000,0.9180000,-0.0458829
51.34,531.089,0.1100000,0.8970000,-0.0397263
51.39,531.59,0.1070000,0.8780000,-0.0331348
51.43,532.09,0.1060000,0.8630000,-0.0276390
51.48,532.59,0.1040000,0.8510000,-0.0226465
51.53,533.09,0.1030000,0.8400000,-0.0186382
51.58,533.59,0.1020000,0.8320000,-0.0148320
51.64,534.09,0.1010000,0.8250000,-0.0118217
51.69,534.59,0.1000000,0.8200000,-0.0087341
51.74,535.09,0.1000000,0.8160000,-0.0072471
51.79,535.59,0.0990000,0.8130000,-0.0057713
51.84,536.09,0.0990000,0.8110000,-0.0046787
51.89,536.59,0.0990000,0.8090000,-0.0040172
51.94,537.091,0.0990000,0.8070000,-0.0030149
51.99,537.591,0.0990000,0.8060000,-0.0020803
52.04,538.091,0.0980000,0.8050000,-0.0014654
52.09,538.591,0.0980000,0.8040000,-0.0013250
52.14,539.091,0.0980000,0.8040000,-0.0012869
52.19,539.591,0.0980000,0.8030000,-0.0006169
52.24,540.091,0.0980000,0.8030000,-0.0011146
52.29,540.591,0.0980000,0.8030000,-0.0004872
52.34,541.091,0.0980000,0.8020000,-0.0008965
52.39,541.591,0.0980000,0.8020000,-0.0005070
52.44,542.091,0.0980000,0.8020000,-0.0006681
52.49,542.592,0.0980000,0.8020000,-0.0004146
52.54,543.092,0.0980000,0.8020000,-0.0002612
52.59,543.592,0.0980000,0.8020000,0.0006883
52.64,544.092,0.0980000,0.8020000,-0.0002196
52.69,544.592,0.0980000,0.8020000,0.0000918
52.74,545.092,0.0980000,0.8020000,-0.0002208
52.79,545.592,0.0980000,0.8020000,-0.0000484
52.84,546.092,0.0980000,0.8020000,0.0000205
52.89,546.592,0.0980000,0.8030000,-0.0000576
52.94,547.092,0.0980000,0.8030000,0.0001193
52.98,547.592,0.0980000,0.8030000,-0.0000256
53.03,548.093,0.0980000,0.8030000,0.0002167
53.08,548.593,0.0980000,0.8030000,0.0003408
53.13,549.093,0.0980000,0.8030000,-0.0004036
53.18,549.593,0.0980000,0.8030000,-0.0002772
53.23,550.093,0.0980000,0.8030000,0.0001061
53.28,550.593,0.0980000,0.8030000,0.0001324
53.33,551.093,0.0980000,0.8030000,0.0000420
53.38,551.593,0.0980000,0.8030000,-0.0001533
53.43,552.093,0.0980000,0.8030000,0.0002210
53.48,552.593,0.0980000,0.8030000,-0.0001552
53.53,553.093,0.0980000,0.8030000,0.0001639
53.58,553.593,0.0980000,0.8030000,0.0000856
53.62,554.094,0.0980000,0.8030000,0.0002770
53.67,554.594,0.0980000,0.8030000,-0.0002447
53.72,555.094,0.0980000,0.8030000,-0.0003853
53.77,555.594,0.0980000,0.8030000,0.0002194
53.82,556.094,0.0980000,0.8030000,0.0001984
53.87,556.594,0.0980000,0.8040000,0.0002954
53.92,557.094,0.0980000,0.8040000,0.0001169
53.97,557.594,0.0980000,0.8040000,0.0001227
54.02,558.094,0.0980000,0.8040000,0.0001783
54.07,558.594,0.0980000,0.8040000,0.0002185
54.12,559.094,0.0980000,0.8040000,-0.0000324
54.17,559.595,0.0980000,0.8040000,-0.0001555
54.22,560.095,0.0980000,0.8040000,0.0000243
54.27,560.595,0.0980000,0.8040000,0.0002045
54.32,561.095,0.0980000,0.8040000,0.0001054
54.37,561.595,0.0980000,0.8040000,-0.0000676
54.42,562.095,0.0980000,0.8040000,-0.0000870
54.47,562.595,0.0980000,0.8040000,-0.0000857
54.52,563.095,0.0980000,0.8040000,0.0001405
54.57,563.595,0.0980000,0.8040000,-0.0001328
54.63,564.095,0.0980000,0.8040000,0.0001889
54.68,564.595,0.0980000,0.8040000,-0.0001332
54.73,565.096,0.0980000,0.8040000,-0.0000210
54.78,565.596,0.0980000,0.8040000,0.0003440
54.83,566.096,0.0980000,0.8040000,0.0002039
54.88,566.596,0.0980000,0.8040000,0.0001154
54.93,567.096,0.0980000,0.8040000,-0.0001957
54.98,567.596,0.0980000,0.8040000,0.0001425
55.03,568.096,0.0980000,0.8040000,0.0000443
55.08,568.596,0.0980000,0.8040000,0.0003748
55.13,569.096,0.0980000,0.8040000,0.0000681
55.18,569.596,0.0980000,0.8050000,0.0007893
55.23,570.096,0.0980000,0.8050000,0.0005188
55.28,570.597,0.0980000,0.8050000,0.0001404
55.33,571.097,0.0980000,0.8050000,0.0002695
55.38,571.597,0.0980000,0.8050000,0.0002165
55.43,572.097,0.0980000,0.8050000,0.0002486
55.48,572.597,0.0980000,0.8050000,-0.0003694
55.53,573.097,0.0980000,0.8050000,-0.0009097
55.58,573.597,0.0980000,0.8050000,0.0000126
55.63,574.097,0.0980000,0.8050000,-0.0000182
55.68,574.597,0.0980000,0.8050000,0.0005115
55.73,575.097,0.0980000,0.8050000,-0.0007084
55.78,575.597,0.0980000,0.8040000,0.0000554
55.83,576.098,0.0980000,0.8040000,0.0006364
55.88,576.598,0.0980000,0.8040000,0.0003942
55.93,577.098,0.0980000,0.8040000,-0.0002367
55.98,577.598,0.0980000,0.8040000,-0.0001960
56.03,578.098,0.0980000,0.8040000,-0.0007077
56.08,578.598,0.0980000,0.8040000,0.0003021
56.13,579.098,0.0980000,0.8040000,0.0002805
56.18,579.598,0.0980000,0.8040000,0.0002784
56.23,580.098,0.0980000,0.8040000,-0.0003607
56.28,580.598,0.0980000,0.8040000,-0.0002856
56.33,581.098,0.0980000,0.8040000,-0.0000022
56.38,581.598,0.0980000,0.8040000,-0.0001245
56.43,582.099,0.0980000,0.8040000,0.0001811
56.48,582.599,0.0980000,0.8040000,-0.0000890
56.53,583.099,0.0980000,0.8040000,-0.0002642
56.58,583.599,0.0980000,0.8040000,-0.0000082
56.63,584.099,0.0980000,0.8040000,0.0007220
56.68,584.599,0.0980000,0.8040000,0.0003677
56.73,585.099,0.0980000,0.8040000,-0.0003298
56.78,585.599,0.0980000,0.8040000,-0.0006866
56.83,586.099,0.0980000,0.8040000,0.0003917
56.88,586.599,0.0980000,0.8040000,0.0002541
56.93,587.099,0.0980000,0.8040000,0.0002801
56.98,587.6,0.0980000,0.8040000,-0.0004775
57.03,588.1,0.0980000,0.8040000,-0.0005711
57.08,588.6,0.0980000,0.8040000,-0.0004475
57.14,589.1,0.0980000,0.8040000,0.0002054
57.19,589.6,0.0980000,0.8040000,-0.0000872
57.23,590,0.0980000,0.8040000,0.0001914