File: R/rHDPE_App/app/www/Output/TGA/Condensed_Data/Resin15_1__1.csv
0.6800000,30,16.097,100.011,0.0102764
0.7500000,30.5001,16.098,100.013,0.0090276
0.8200000,31.0002,16.098,100.015,-0.0015855
0.8800000,31.5003,16.098,100.017,0.0071320
0.9500000,32.0004,16.099,100.019,0.0075516
1.01,32.5004,16.099,100.02,0.0071539
1.07,33.0005,16.099,100.022,0.0059597
1.13,33.5006,16.099,100.023,0.0056275
1.19,34.0007,16.1,100.025,0.0025057
1.25,34.5008,16.1,100.026,0.0005789
1.3,35.0009,16.1,100.028,0.0050513
1.36,35.501,16.1,100.029,0.0010834
1.42,36.0011,16.1,100.03,0.0020958
1.47,36.5012,16.101,100.031,0.0021290
1.53,37.0013,16.101,100.032,0.0023629
1.58,37.5013,16.101,100.033,0.0005496
1.63,38.0014,16.101,100.034,0.0033298
1.69,38.5015,16.101,100.035,0.0001978
1.74,39.0016,16.101,100.035,0.0021669
1.8,39.5017,16.101,100.036,0.0004414
1.85,40.0018,16.102,100.037,0.0003911
1.91,40.5019,16.102,100.038,0.0028769
1.96,41.002,16.102,100.039,0.0006803
2.01,41.5021,16.102,100.039,0.0003876
2.06,42.0021,16.102,100.04,0.0019822
2.12,42.5022,16.102,100.041,0.0014472
2.17,43.0023,16.102,100.041,0.0003854
2.22,43.5024,16.102,100.042,0.0014422
2.27,44.0025,16.103,100.043,0.0018682
2.33,44.5026,16.103,100.043,0.0010043
2.38,45.0027,16.103,100.044,0.0010995
2.43,45.5028,16.103,100.045,0.0019557
2.48,46.0029,16.103,100.046,0.0020492
2.54,46.5029,16.103,100.046,0.0006179
2.59,47.003,16.103,100.047,0.0005703
2.64,47.5031,16.103,100.048,0.0016164
2.69,48.0032,16.103,100.048,0.0015187
2.74,48.5033,16.103,100.049,0.0013268
2.79,49.0034,16.104,100.049,0.0006147
2.84,49.5035,16.104,100.05,0.0003788
2.9,50.0036,16.104,100.051,0.0010404
2.95,50.5037,16.104,100.051,0.0016085
3,51.0038,16.104,100.052,0.0010848
3.05,51.5038,16.104,100.052,0.0009890
3.1,52.0039,16.104,100.053,0.0010809
3.16,52.504,16.104,100.054,0.0012200
3.21,53.0041,16.104,100.054,0.0014997
3.26,53.5042,16.104,100.055,0.0013584
3.31,54.0043,16.105,100.056,0.0006090
3.36,54.5044,16.105,100.056,0.0009822
3.41,55.0045,16.105,100.057,0.0007968
3.46,55.5046,16.105,100.057,0.0015906
3.51,56.0046,16.105,100.058,0.0013051
3.56,56.5047,16.105,100.058,0.0011151
3.61,57.0048,16.105,100.059,0.0010677
3.66,57.5049,16.105,100.06,0.0012539
3.71,58.005,16.105,100.06,0.0010206
3.77,58.5051,16.105,100.061,0.0011142
3.82,59.0052,16.106,100.062,0.0018541
3.87,59.5053,16.106,100.062,0.0017577
3.92,60.0054,16.106,100.063,0.0010636
3.97,60.5054,16.106,100.063,0.0010644
4.02,61.0055,16.106,100.064,0.0010640
4.07,61.5056,16.106,100.064,0.0011570
4.12,62.0057,16.106,100.065,0.0010646
4.17,62.5058,16.106,100.066,0.0017558
4.22,63.0059,16.106,100.066,0.0012918
4.27,63.506,16.106,100.067,0.0014775
4.32,64.0061,16.106,100.067,0.0009231
4.37,64.5062,16.107,100.068,0.0010616
4.42,65.0063,16.107,100.068,0.0010150
4.47,65.5063,16.107,100.069,0.0016617
4.52,66.0064,16.107,100.07,0.0010150
4.57,66.5065,16.107,100.07,0.0007839
4.63,67.0066,16.107,100.071,0.0010142
4.68,67.5067,16.107,100.071,0.0010598
4.73,68.0068,16.107,100.072,0.0010128
4.78,68.5069,16.107,100.072,0.0012894
4.83,69.007,16.107,100.073,0.0010130
4.88,69.5071,16.107,100.073,0.0006448
4.93,70.0071,16.107,100.074,0.0010594
4.98,70.5072,16.108,100.074,0.0011055
5.03,71.0073,16.108,100.075,0.0017029
5.08,71.5074,16.108,100.075,0.0005063
5.13,72.0075,16.108,100.076,0.0010582
5.18,72.5076,16.108,100.076,0.0010575
5.23,73.0077,16.108,100.077,0.0013323
5.28,73.5078,16.108,100.077,0.0010106
5.33,74.0079,16.108,100.077,0.0008729
5.38,74.5079,16.108,100.078,0.0007810
5.43,75.008,16.108,100.078,0.0010563
5.48,75.5081,16.108,100.079,0.0009192
5.53,76.0082,16.108,100.079,0.0011028
5.58,76.5083,16.108,100.08,0.0007810
5.63,77.0084,16.109,100.08,0.0008728
5.68,77.5085,16.109,100.081,0.0010105
5.73,78.0086,16.109,100.081,0.0008722
5.78,78.5087,16.109,100.082,0.0010098
5.83,79.0088,16.109,100.082,0.0005051
5.88,79.5088,16.109,100.083,0.0014686
5.93,80.0089,16.109,100.084,0.0015596
5.98,80.509,16.109,100.084,0.0017427
6.03,81.0091,16.109,100.085,0.0011920
6.08,81.5092,16.109,100.085,0.0008709
6.13,82.0093,16.109,100.086,0.0007786
6.18,82.5094,16.109,100.086,0.0010536
6.23,83.0095,16.11,100.086,0.0007330
6.28,83.5096,16.11,100.087,0.0006874
6.33,84.0096,16.11,100.087,0.0005039
6.38,84.5097,16.11,100.087,0.0004582
6.43,85.0098,16.11,100.088,0.0006876
6.48,85.5099,16.11,100.088,0.0006877
6.53,86.01,16.11,100.088,0.0006878
6.58,86.5101,16.11,100.089,0.0004129
6.63,87.0102,16.11,100.089,0.0008712
6.68,87.5103,16.11,100.09,0.0007793
6.73,88.0104,16.11,100.09,0.0008695
6.78,88.5104,16.11,100.09,0.0010025
6.83,89.0105,16.11,100.091,0.0009117
6.88,89.5106,16.11,100.091,0.0007311
6.93,90.0107,16.11,100.092,0.0005026
6.98,90.5108,16.11,100.092,0.0006861
7.03,91.0109,16.11,100.092,0.0007781
7.08,91.511,16.111,100.092,0.0005954
7.13,92.0111,16.111,100.093,0.0005045
7.18,92.5112,16.111,100.093,0.0004130
7.23,93.0113,16.111,100.093,0.0003206
7.28,93.5113,16.111,100.094,0.0006867
7.33,94.0114,16.111,100.094,0.0006874
7.38,94.5115,16.111,100.094,0.0008720
7.43,95.0116,16.111,100.095,0.0013308
7.48,95.5117,16.111,100.095,0.0011469
7.53,96.0118,16.111,100.096,0.0013788
7.58,96.5119,16.111,100.096,0.0010117
7.63,97.012,16.111,100.097,0.0005050
7.68,97.5121,16.111,100.097,0.0009171
7.73,98.0121,16.111,100.097,0.0010997
7.78,98.5122,16.111,100.098,0.0001375
7.83,99.0123,16.111,100.098,0.0006409
7.88,99.5124,16.111,100.098,0.0005949
7.93,100.013,16.111,100.098,0.0006869
7.98,100.513,16.112,100.099,0.0003662
8.03,101.013,16.112,100.099,0.0004125
8.08,101.513,16.112,100.099,0.0005040
8.13,102.013,16.112,100.1,0.0011003
8.18,102.513,16.112,100.1,0.0005961
8.23,103.013,16.112,100.101,0.0006888
8.28,103.513,16.112,100.101,0.0010064
8.33,104.013,16.112,100.101,0.0005017
8.38,104.513,16.112,100.102,0.0005016
8.43,105.013,16.112,100.102,0.0004545
8.48,105.513,16.112,100.102,0.0009082
8.53,106.014,16.112,100.103,0.0000910
8.58,106.514,16.112,100.103,0.0006832
8.63,107.014,16.112,100.103,0.0004571
8.68,107.514,16.112,100.103,0.0003674
8.73,108.014,16.112,100.103,0.0004145
8.78,108.514,16.112,100.104,0.0004155
8.83,109.014,16.112,100.104,0.0005086
8.88,109.514,16.112,100.104,0.0003695
8.93,110.014,16.112,100.104,0.0000000
8.98,110.514,16.112,100.104,0.0006909
9.03,111.014,16.112,100.105,0.0006901
9.08,111.515,16.112,100.105,0.0002762
9.13,112.015,16.113,100.105,0.0016550
9.18,112.515,16.113,100.106,0.0010130
9.23,113.015,16.113,100.106,0.0006911
9.28,113.515,16.113,100.106,0.0003224
9.33,114.015,16.113,100.106,0.0000919
9.39,114.515,16.113,100.106,0.0004133
9.44,115.015,16.113,100.107,0.0004137
9.49,115.515,16.113,100.107,0.0005987
9.54,116.015,16.113,100.107,0.0011065
9.59,116.515,16.113,100.107,0.0004141
9.64,117.016,16.113,100.108,0.0003200
9.69,117.516,16.113,100.108,0.0001819
9.74,118.016,16.113,100.108,-0.0000455
9.79,118.516,16.113,100.108,0.0000914
9.84,119.016,16.113,100.108,0.0001832
9.89,119.516,16.113,100.108,0.0000457
9.94,120.016,16.113,100.108,0.0001828
9.99,120.516,16.113,100.109,0.0006393
10.04,121.016,16.113,100.109,0.0006839
10.08,121.516,16.113,100.109,0.0004562
10.13,122.016,16.113,100.109,0.0003652
10.18,122.517,16.113,100.11,0.0003653
10.23,123.017,16.113,100.11,0.0001823
10.28,123.517,16.113,100.11,0.0003648
10.33,124.017,16.113,100.11,0.0004114
10.38,124.517,16.113,100.11,0.0001372
10.43,125.017,16.113,100.11,0.0006850
10.48,125.517,16.113,100.11,0.0002282
10.53,126.017,16.113,100.111,0.0002741
10.58,126.517,16.113,100.111,0.0003200
10.63,127.017,16.113,100.111,0.0003203
10.68,127.517,16.113,100.111,0.0003665
10.73,128.018,16.113,100.111,0.0000000
10.78,128.518,16.114,100.111,0.0005025
10.83,129.018,16.114,100.111,0.0004107
10.88,129.518,16.114,100.112,0.0000000
10.93,130.018,16.114,100.112,0.0003207
10.98,130.518,16.114,100.112,0.0002282
11.03,131.018,16.114,100.112,0.0001823
11.08,131.518,16.114,100.112,-0.0000457
11.13,132.018,16.114,100.112,-0.0001835
11.18,132.518,16.114,100.112,-0.0000459
11.23,133.018,16.114,100.112,0.0001375
11.28,133.518,16.114,100.112,0.0000916
11.33,134.019,16.114,100.112,0.0003669
11.38,134.519,16.114,100.112,0.0003679
11.43,135.019,16.114,100.113,0.0004140
11.48,135.519,16.114,100.113,0.0001376
11.53,136.019,16.114,100.113,0.0005968
11.58,136.519,16.114,100.113,0.0001832
11.63,137.019,16.114,100.113,-0.0000919
11.68,137.519,16.114,100.113,0.0000000
11.73,138.019,16.114,100.113,0.0005988
11.78,138.519,16.114,100.114,0.0003689
11.84,139.019,16.114,100.114,0.0003234
11.89,139.52,16.114,100.114,0.0006922
11.94,140.02,16.114,100.114,0.0000000
11.99,140.52,16.114,100.114,0.0001834
12.04,141.02,16.114,100.114,0.0005029
12.09,141.52,16.114,100.115,0.0004577
12.14,142.02,16.114,100.115,0.0004130
12.19,142.52,16.114,100.115,0.0000917
12.24,143.02,16.114,100.115,0.0007323
12.29,143.52,16.114,100.115,0.0003195
12.34,144.02,16.114,100.115,0.0002733
12.39,144.52,16.114,100.115,0.0004556
12.44,145.021,16.114,100.115,0.0002733
12.49,145.521,16.114,100.116,0.0003181
12.54,146.021,16.114,100.116,0.0006804
12.59,146.521,16.114,100.116,0.0003638
12.64,147.021,16.114,100.116,0.0003191
12.69,147.521,16.114,100.116,0.0000913
12.74,148.021,16.114,100.117,0.0003202
12.79,148.521,16.114,100.117,0.0001833
12.84,149.021,16.114,100.117,0.0004123
12.89,149.521,16.114,100.117,-0.0001832
12.94,150.021,16.115,100.117,0.0001832
12.99,150.522,16.115,100.117,-0.0000917
13.04,151.022,16.115,100.118,0.0000912
13.09,151.522,16.115,100.118,0.0002276
13.13,152.022,16.115,100.118,0.0003654
13.18,152.522,16.115,100.118,0.0000000
13.23,153.022,16.115,100.118,0.0001824
13.28,153.522,16.115,100.118,-0.0002739
13.33,154.022,16.115,100.118,-0.0002749
13.38,154.522,16.115,100.118,0.0000000
13.43,155.022,16.115,100.118,0.0000000
13.48,155.522,16.115,100.118,-0.0001802
13.53,156.023,16.115,100.118,-0.0000903
13.58,156.523,16.115,100.118,-0.0004104
13.63,157.023,16.115,100.118,-0.0001380
13.68,157.523,16.115,100.118,-0.0006903
13.73,158.023,16.115,100.117,-0.0004169
13.78,158.523,16.114,100.117,-0.0006990
13.83,159.023,16.114,100.117,-0.0010231
13.89,159.523,16.114,100.117,-0.0006952
13.94,160.023,16.114,100.116,-0.0006498
13.99,160.523,16.114,100.116,-0.0012945
14.04,161.023,16.114,100.115,-0.0010152
14.09,161.523,16.114,100.114,-0.0014726
14.14,162.024,16.114,100.114,-0.0015164
14.19,162.524,16.114,100.113,-0.0017919
14.24,163.024,16.114,100.112,-0.0015563
14.29,163.524,16.114,100.111,-0.0012332
14.34,164.024,16.113,100.111,-0.0007306
14.39,164.524,16.113,100.11,-0.0013246
14.44,165.024,16.113,100.109,-0.0014196
14.49,165.524,16.113,100.109,-0.0012817
14.54,166.024,16.113,100.108,-0.0010048
14.59,166.524,16.113,100.107,-0.0010914
14.64,167.024,16.113,100.107,-0.0010037
14.69,167.525,16.113,100.106,-0.0010560
14.74,168.025,16.113,100.106,-0.0008701
14.79,168.525,16.113,100.105,-0.0009620
14.84,169.025,16.113,100.105,-0.0010096
14.89,169.525,16.112,100.105,-0.0008271
14.94,170.025,16.112,100.104,-0.0007339
14.99,170.525,16.112,100.104,-0.0005978
15.04,171.025,16.112,100.104,-0.0003710
15.09,171.525,16.112,100.104,-0.0003254
15.14,172.025,16.112,100.103,-0.0006084
15.19,172.525,16.112,100.103,-0.0002851
15.25,173.026,16.112,100.103,-0.0007119
15.3,173.526,16.112,100.103,-0.0000001
15.35,174.026,16.112,100.103,-0.0003745
15.4,174.526,16.112,100.103,0.0000000
15.45,175.026,16.112,100.103,0.0005111
15.5,175.526,16.112,100.103,0.0003232
15.55,176.026,16.112,100.103,-0.0001370
15.6,176.526,16.112,100.103,-0.0004997
15.65,177.026,16.112,100.102,-0.0001358
15.7,177.526,16.112,100.102,-0.0004973
15.75,178.026,16.112,100.102,-0.0003611
15.8,178.527,16.112,100.102,-0.0002254
15.85,179.027,16.112,100.102,-0.0003608
15.9,179.527,16.112,100.101,-0.0002717
15.95,180.027,16.112,100.101,-0.0003648
16,180.527,16.112,100.101,-0.0000919
16.05,181.027,16.112,100.101,-0.0002741
16.1,181.527,16.112,100.1,-0.0005445
16.15,182.027,16.112,100.1,-0.0003602
16.19,182.527,16.112,100.1,-0.0000898
16.24,183.027,16.112,100.1,-0.0001347
16.29,183.527,16.112,100.1,-0.0005399
16.34,184.028,16.112,100.099,-0.0005871
16.39,184.528,16.112,100.099,-0.0003622
16.44,185.028,16.112,100.099,-0.0000906
16.49,185.528,16.112,100.099,-0.0000907
16.54,186.028,16.112,100.099,-0.0001818
16.59,186.528,16.112,100.099,-0.0002726
16.64,187.028,16.112,100.099,0.0000000
16.69,187.528,16.111,100.098,-0.0004999
16.74,188.028,16.111,100.098,0.0000000
16.79,188.528,16.111,100.098,-0.0005913
16.84,189.028,16.111,100.098,-0.0003182
16.89,189.528,16.111,100.097,-0.0005001
16.94,190.029,16.111,100.097,-0.0010006
16.98,190.529,16.111,100.097,-0.0006808
17.03,191.029,16.111,100.097,-0.0003184
17.08,191.529,16.111,100.096,-0.0005021
17.13,192.029,16.111,100.096,-0.0003212
17.18,192.529,16.111,100.096,-0.0003681
17.23,193.029,16.111,100.096,-0.0004137
17.28,193.529,16.111,100.096,-0.0005041
17.33,194.029,16.111,100.096,-0.0000000
17.38,194.529,16.111,100.095,-0.0003185
17.43,195.029,16.111,100.095,-0.0002736
17.48,195.53,16.111,100.095,-0.0000913
17.53,196.03,16.111,100.095,0.0003662
17.58,196.53,16.111,100.095,-0.0002750
17.63,197.03,16.111,100.095,-0.0003666
17.68,197.53,16.111,100.094,-0.0002751
17.74,198.03,16.111,100.094,-0.0002755
17.79,198.53,16.111,100.094,-0.0005973
17.84,199.03,16.111,100.094,-0.0001838
17.89,199.53,16.111,100.094,0.0000000
17.94,200.03,16.111,100.094,0.0000000
17.99,200.53,16.111,100.094,-0.0001382
18.04,201.031,16.111,100.093,-0.0003684
18.09,201.531,16.111,100.093,-0.0005526
18.14,202.031,16.111,100.093,-0.0003694
18.19,202.531,16.111,100.093,-0.0003229
18.24,203.031,16.111,100.093,-0.0005094
18.29,203.531,16.111,100.093,-0.0002779
18.34,204.031,16.111,100.092,-0.0001387
18.39,204.531,16.11,100.092,-0.0003690
18.44,205.031,16.11,100.092,-0.0002765
18.49,205.531,16.11,100.092,-0.0002764
18.54,206.031,16.11,100.092,0.0002764
18.59,206.532,16.11,100.092,-0.0003222
18.64,207.032,16.11,100.091,-0.0003683
18.69,207.532,16.11,100.091,-0.0004163
18.74,208.032,16.11,100.091,-0.0004589
18.79,208.532,16.11,100.09,-0.0002777
18.84,209.032,16.11,100.09,-0.0000912
18.89,209.532,16.11,100.09,-0.0000000
18.94,210.032,16.11,100.09,-0.0003257
18.99,210.532,16.11,100.09,-0.0000933
19.04,211.032,16.11,100.089,-0.0000926
19.09,211.532,16.11,100.089,-0.0005433
19.14,212.033,16.11,100.089,-0.0004250
19.19,212.533,16.11,100.089,-0.0003513
19.23,213.033,16.11,100.088,-0.0005851
19.28,213.533,16.11,100.088,-0.0002756
19.33,214.033,16.11,100.088,-0.0006974
19.39,214.533,16.11,100.088,-0.0003693
19.44,215.033,16.11,100.087,-0.0007857
19.49,215.533,16.11,100.087,-0.0005101
19.54,216.033,16.11,100.087,-0.0004593
19.59,216.533,16.11,100.086,-0.0001836
19.64,217.033,16.11,100.086,0.0000917
19.69,217.533,16.11,100.086,-0.0000917
19.74,218.034,16.109,100.086,-0.0007384
19.79,218.534,16.109,100.086,-0.0006056
19.84,219.034,16.109,100.085,-0.0005491
19.89,219.534,16.109,100.085,-0.0002716
19.94,220.034,16.109,100.085,-0.0006795
19.99,220.534,16.109,100.085,-0.0004982
20.04,221.034,16.109,100.084,-0.0007771
20.09,221.534,16.109,100.084,-0.0005047
20.14,222.034,16.109,100.084,-0.0008738
20.19,222.534,16.109,100.083,-0.0006888
20.24,223.034,16.109,100.083,-0.0001832
20.29,223.535,16.109,100.083,-0.0006859
20.34,224.035,16.109,100.083,-0.0010073
20.39,224.535,16.109,100.082,-0.0008653
20.44,225.035,16.109,100.082,-0.0005900
20.49,225.535,16.109,100.081,-0.0003190
20.54,226.035,16.109,100.081,-0.0003137
20.58,226.535,16.109,100.081,-0.0006712
20.63,227.035,16.109,100.081,-0.0004624
20.68,227.535,16.109,100.08,-0.0009745
20.74,228.035,16.108,100.08,-0.0005163
20.79,228.535,16.108,100.08,-0.0009363
20.84,229.036,16.108,100.079,-0.0004689
20.89,229.536,16.108,100.079,-0.0000000
20.94,230.036,16.108,100.079,-0.0003240
20.99,230.536,16.108,100.079,-0.0004605
21.04,231.036,16.108,100.078,-0.0005081
21.09,231.536,16.108,100.078,-0.0005067
21.14,232.036,16.108,100.078,-0.0006859
21.19,232.536,16.108,100.078,-0.0000910
21.24,233.036,16.108,100.077,-0.0006841
21.29,233.536,16.108,100.077,-0.0005493
21.34,234.036,16.108,100.077,-0.0006874
21.39,234.537,16.108,100.076,-0.0008717
21.44,235.037,16.108,100.076,-0.0009204
21.49,235.537,16.108,100.076,-0.0005992
21.54,236.037,16.108,100.075,-0.0005094
21.59,236.537,16.108,100.075,-0.0007317
21.64,237.037,16.108,100.075,-0.0009158
21.69,237.537,16.108,100.074,-0.0011009
21.74,238.037,16.108,100.074,-0.0009035
21.79,238.537,16.107,100.074,-0.0008999
21.84,239.037,16.107,100.073,-0.0004520
21.89,239.537,16.107,100.073,-0.0002722
21.94,240.038,16.107,100.073,-0.0007734
21.99,240.538,16.107,100.072,-0.0006827
22.04,241.038,16.107,100.072,-0.0004101
22.09,241.538,16.107,100.071,-0.0006852
22.14,242.038,16.107,100.071,-0.0007770
22.19,242.538,16.107,100.071,-0.0010519
22.24,243.038,16.107,100.07,-0.0006840
22.29,243.538,16.107,100.07,-0.0010817
22.34,244.038,16.107,100.07,-0.0006856
22.39,244.538,16.107,100.069,-0.0005153
22.44,245.038,16.107,100.069,-0.0005547
22.5,245.538,16.107,100.069,-0.0008373
22.56,246.039,16.107,100.068,-0.0005005
22.61,246.539,16.107,100.068,-0.0008941
22.66,247.039,16.107,100.068,-0.0007287
22.71,247.539,16.106,100.067,-0.0006317
22.76,248.039,16.106,100.067,-0.0005123
22.81,248.539,16.106,100.067,-0.0011199
22.86,249.039,16.106,100.066,-0.0006044
22.91,249.539,16.106,100.066,-0.0004704
22.96,250.039,16.106,100.065,-0.0008806
23.01,250.539,16.106,100.065,-0.0011708
23.07,251.039,16.106,100.064,-0.0010425
23.13,251.54,16.106,100.064,-0.0002845
23.18,252.04,16.106,100.063,-0.0008044
23.23,252.54,16.106,100.063,-0.0005612
23.27,253.04,16.106,100.063,-0.0007345
23.32,253.54,16.106,100.062,-0.0004337
23.37,254.04,16.106,100.062,-0.0009677
23.42,254.54,16.106,100.062,-0.0011070
23.47,255.04,16.105,100.061,-0.0013224
23.51,255.54,16.105,100.061,-0.0012723
23.56,256.04,16.105,100.06,-0.0010096
23.61,256.54,16.105,100.06,-0.0007473
23.66,257.041,16.105,100.059,-0.0011424
23.71,257.541,16.105,100.059,-0.0008803
23.75,258.041,16.105,100.058,-0.0012379
23.8,258.541,16.105,100.058,-0.0006668
23.85,259.041,16.105,100.057,-0.0009361
23.9,259.541,16.105,100.057,-0.0007637
23.95,260.041,16.105,100.056,-0.0008897
24,260.541,16.105,100.056,-0.0012495
24.04,261.041,16.105,100.055,-0.0009888
24.09,261.541,16.104,100.055,-0.0011754
24.14,262.041,16.104,100.054,-0.0013592
24.19,262.542,16.104,100.054,-0.0002729
24.24,263.042,16.104,100.053,-0.0010033
24.29,263.542,16.104,100.053,-0.0008532
24.34,264.042,16.104,100.052,-0.0011155
24.39,264.542,16.104,100.052,-0.0008492
24.44,265.042,16.104,100.051,-0.0016641
24.49,265.542,16.104,100.051,-0.0013604
24.54,266.042,16.104,100.05,-0.0013661
24.59,266.542,16.104,100.049,-0.0010827
24.64,267.042,16.103,100.049,-0.0007637
24.69,267.542,16.103,100.048,-0.0008597
24.73,268.043,16.103,100.048,-0.0009923
24.78,268.543,16.103,100.047,-0.0013594
24.83,269.043,16.103,100.046,-0.0009606
24.88,269.543,16.103,100.046,-0.0010627
24.93,270.043,16.103,100.045,-0.0012420
24.98,270.543,16.103,100.045,-0.0010531
25.03,271.043,16.103,100.044,-0.0013575
25.08,271.543,16.103,100.044,-0.0010795
25.13,272.043,16.103,100.043,-0.0014706
25.18,272.543,16.102,100.043,-0.0013051
25.23,273.043,16.102,100.042,-0.0010496
25.28,273.543,16.102,100.041,-0.0009657
25.33,274.044,16.102,100.041,-0.0009635
25.38,274.544,16.102,100.04,-0.0009701
25.43,275.044,16.102,100.04,-0.0009191
25.48,275.544,16.102,100.039,-0.0010000
25.53,276.044,16.102,100.039,-0.0006738
25.58,276.544,16.102,100.038,-0.0013538
25.63,277.044,16.102,100.038,-0.0010056
25.68,277.544,16.102,100.037,-0.0014809
25.73,278.044,16.101,100.036,-0.0015369
25.78,278.544,16.101,100.036,-0.0012628
25.83,279.044,16.101,100.035,-0.0014164
25.88,279.545,16.101,100.034,-0.0012657
25.93,280.045,16.101,100.034,-0.0010914
25.98,280.545,16.101,100.033,-0.0013495
26.03,281.045,16.101,100.032,-0.0013111
26.08,281.545,16.101,100.032,-0.0009124
26.13,282.045,16.101,100.031,-0.0009237
26.18,282.545,16.101,100.031,-0.0011633
26.23,283.045,16.101,100.03,-0.0010748
26.29,283.545,16.1,100.03,-0.0010734
26.34,284.045,16.1,100.029,-0.0013526
26.39,284.545,16.1,100.029,-0.0012154
26.44,285.046,16.1,100.028,-0.0015094
26.49,285.546,16.1,100.027,-0.0009574
26.54,286.046,16.1,100.027,-0.0012318
26.59,286.546,16.1,100.026,-0.0003719
26.64,287.046,16.1,100.025,-0.0010176
26.7,287.546,16.1,100.025,-0.0017707
26.75,288.046,16.099,100.024,-0.0018971
26.8,288.546,16.099,100.023,-0.0019797
26.85,289.046,16.099,100.022,-0.0014006
26.9,289.546,16.099,100.022,-0.0017344
26.95,290.046,16.099,100.021,-0.0013182
27,290.547,16.099,100.02,-0.0013980
27.05,291.047,16.099,100.02,-0.0015867
27.1,291.547,16.099,100.019,-0.0017085
27.16,292.047,16.099,100.018,-0.0016889
27.21,292.547,16.098,100.017,-0.0017900
27.26,293.047,16.098,100.017,-0.0016666
27.31,293.547,16.098,100.016,-0.0014184
27.36,294.047,16.098,100.015,-0.0012629
27.41,294.547,16.098,100.014,-0.0012935
27.46,295.047,16.098,100.014,-0.0012367
27.51,295.547,16.098,100.013,-0.0014742
27.56,296.048,16.098,100.012,-0.0017841
27.61,296.548,16.097,100.011,-0.0018519
27.66,297.048,16.097,100.011,-0.0015307
27.71,297.548,16.097,100.01,-0.0015909
27.76,298.048,16.097,100.009,-0.0016499
27.81,298.548,16.097,100.008,-0.0017431
27.86,299.048,16.097,100.007,-0.0020584
27.91,299.548,16.097,100.007,-0.0011178
27.96,300.048,16.097,100.006,-0.0019681
28.01,300.548,16.096,100.005,-0.0015953
28.06,301.048,16.096,100.004,-0.0014631
28.11,301.548,16.096,100.003,-0.0016994
28.16,302.049,16.096,100.003,-0.0012769
28.21,302.549,16.096,100.002,-0.0011933
28.26,303.049,16.096,100.001,-0.0012253
28.31,303.549,16.096,100,-0.0019258
28.36,304.049,16.096,99.999,-0.0019947
28.41,304.549,16.095,99.999,-0.0019883
28.46,305.049,16.095,99.998,-0.0014167
28.51,305.549,16.095,99.997,-0.0016820
28.55,306.049,16.095,99.996,-0.0020870
28.6,306.549,16.095,99.995,-0.0019213
28.65,307.049,16.095,99.994,-0.0019377
28.7,307.55,16.095,99.993,-0.0019091
28.75,308.05,16.094,99.993,-0.0012762
28.8,308.55,16.094,99.992,-0.0017352
28.85,309.05,16.094,99.991,-0.0020936
28.9,309.55,16.094,99.99,-0.0015211
28.95,310.05,16.094,99.989,-0.0016123
29,310.55,16.094,99.988,-0.0018207
29.05,311.05,16.094,99.987,-0.0018921
29.1,311.55,16.093,99.986,-0.0017877
29.15,312.05,16.093,99.985,-0.0016429
29.2,312.55,16.093,99.984,-0.0016263
29.25,313.051,16.093,99.983,-0.0019975
29.29,313.551,16.093,99.982,-0.0019803
29.34,314.051,16.093,99.981,-0.0021267
29.39,314.551,16.092,99.98,-0.0025126
29.44,315.051,16.092,99.979,-0.0020776
29.49,315.551,16.092,99.978,-0.0020540
29.54,316.051,16.092,99.977,-0.0023071
29.59,316.551,16.092,99.976,-0.0018116
29.64,317.051,16.092,99.975,-0.0020055
29.69,317.551,16.091,99.974,-0.0021067
29.75,318.051,16.091,99.973,-0.0020139
29.8,318.552,16.091,99.972,-0.0025356
29.85,319.052,16.091,99.971,-0.0018971
29.9,319.552,16.091,99.97,-0.0020901
29.95,320.052,16.091,99.969,-0.0019045
30,320.552,16.09,99.968,-0.0019143
30.05,321.052,16.09,99.967,-0.0016532
30.1,321.552,16.09,99.966,-0.0021109
30.15,322.052,16.09,99.965,-0.0021607
30.2,322.552,16.09,99.964,-0.0022539
30.25,323.052,16.09,99.963,-0.0023213
30.3,323.552,16.09,99.962,-0.0020277
30.35,324.053,16.089,99.961,-0.0021966
30.4,324.553,16.089,99.96,-0.0026061
30.45,325.053,16.089,99.959,-0.0019823
30.5,325.553,16.089,99.958,-0.0021139
30.55,326.053,16.089,99.957,-0.0021377
30.6,326.553,16.089,99.956,-0.0022212
30.66,327.053,16.088,99.955,-0.0024383
30.71,327.553,16.088,99.953,-0.0023708
30.76,328.053,16.088,99.952,-0.0021808
30.81,328.553,16.088,99.951,-0.0024065
30.86,329.053,16.088,99.95,-0.0021898
30.91,329.553,16.087,99.949,-0.0018286
30.96,330.054,16.087,99.948,-0.0021776
31.01,330.554,16.087,99.947,-0.0022220
31.06,331.054,16.087,99.946,-0.0020404
31.11,331.554,16.087,99.945,-0.0023315
31.16,332.054,16.087,99.943,-0.0024143
31.21,332.554,16.086,99.942,-0.0026004
31.26,333.054,16.086,99.941,-0.0019435
31.31,333.554,16.086,99.94,-0.0023245
31.36,334.054,16.086,99.939,-0.0023538
31.41,334.554,16.086,99.938,-0.0026906
31.46,335.054,16.085,99.936,-0.0023770
31.51,335.555,16.085,99.935,-0.0024771
31.56,336.055,16.085,99.934,-0.0025739
31.61,336.555,16.085,99.933,-0.0028208
31.66,337.055,16.085,99.932,-0.0027350
31.7,337.555,16.084,99.93,-0.0020867
31.75,338.055,16.084,99.929,-0.0024098
31.8,338.555,16.084,99.928,-0.0020168
31.85,339.055,16.084,99.927,-0.0024978
31.9,339.555,16.084,99.926,-0.0024867
31.95,340.055,16.083,99.924,-0.0019323
32,340.555,16.083,99.923,-0.0020993
32.05,341.056,16.083,99.922,-0.0023288
32.1,341.556,16.083,99.921,-0.0027677
32.15,342.056,16.083,99.919,-0.0024047
32.2,342.556,16.082,99.918,-0.0028172
32.24,343.056,16.082,99.917,-0.0027233
32.29,343.556,16.082,99.915,-0.0026316
32.34,344.056,16.082,99.914,-0.0028243
32.39,344.556,16.082,99.913,-0.0028322
32.44,345.056,16.081,99.912,-0.0029033
32.49,345.556,16.081,99.91,-0.0026075
32.54,346.056,16.081,99.909,-0.0025151
32.59,346.557,16.081,99.908,-0.0026061
32.64,347.057,16.081,99.906,-0.0029358
32.69,347.557,16.08,99.905,-0.0027447
32.74,348.057,16.08,99.904,-0.0020185
32.79,348.557,16.08,99.902,-0.0023844
32.84,349.057,16.08,99.901,-0.0025137
32.89,349.557,16.08,99.9,-0.0027064
32.94,350.057,16.079,99.898,-0.0026137
32.99,350.557,16.079,99.897,-0.0030510
33.04,351.057,16.079,99.896,-0.0028321
33.09,351.557,16.079,99.895,-0.0021639
33.14,352.058,16.078,99.893,-0.0024922
33.19,352.558,16.078,99.892,-0.0027599
33.24,353.058,16.078,99.891,-0.0021612
33.3,353.558,16.078,99.889,-0.0026688
33.35,354.058,16.078,99.888,-0.0026654
33.4,354.558,16.077,99.886,-0.0023012
33.45,355.058,16.077,99.885,-0.0027910
33.5,355.558,16.077,99.884,-0.0026099
33.55,356.058,16.077,99.882,-0.0026161
33.6,356.558,16.076,99.881,-0.0028936
33.65,357.058,16.076,99.88,-0.0030819
33.7,357.558,16.076,99.878,-0.0029834
33.75,358.059,16.076,99.877,-0.0024433
33.8,358.559,16.076,99.875,-0.0026802
33.85,359.059,16.075,99.874,-0.0030248
33.9,359.559,16.075,99.872,-0.0028720
33.95,360.059,16.075,99.871,-0.0027788
34,360.559,16.075,99.87,-0.0025472
34.05,361.059,16.074,99.868,-0.0022813
34.1,361.559,16.074,99.867,-0.0018349
34.15,362.059,16.074,99.866,-0.0027437
34.2,362.559,16.074,99.864,-0.0031061
34.25,363.059,16.074,99.863,-0.0031756
34.3,363.56,16.073,99.861,-0.0028866
34.35,364.06,16.073,99.86,-0.0028432
34.4,364.56,16.073,99.858,-0.0029299
34.45,365.06,16.073,99.857,-0.0026943
34.5,365.56,16.072,99.856,-0.0029428
34.55,366.06,16.072,99.854,-0.0029757
34.59,366.56,16.072,99.853,-0.0027327
34.64,367.06,16.072,99.851,-0.0026609
34.69,367.56,16.071,99.85,-0.0030009
34.74,368.06,16.071,99.848,-0.0027804
34.79,368.56,16.071,99.847,-0.0032870
34.85,369.061,16.071,99.845,-0.0030928
34.9,369.561,16.07,99.844,-0.0029583
34.95,370.061,16.07,99.842,-0.0034508
35.01,370.561,16.07,99.84,-0.0035238
35.06,371.061,16.07,99.838,-0.0028954
35.11,371.561,16.069,99.837,-0.0028413
35.16,372.061,16.069,99.835,-0.0031194
35.21,372.561,16.069,99.834,-0.0030695
35.26,373.061,16.069,99.832,-0.0030941
35.31,373.561,16.068,99.831,-0.0032244
35.36,374.061,16.068,99.829,-0.0036232
35.4,374.562,16.068,99.828,-0.0033124
35.45,375.062,16.068,99.826,-0.0032191
35.5,375.562,16.067,99.824,-0.0033945
35.55,376.062,16.067,99.822,-0.0028373
35.6,376.562,16.067,99.821,-0.0034038
35.65,377.062,16.067,99.819,-0.0036948
35.7,377.562,16.066,99.818,-0.0035296
35.76,378.062,16.066,99.816,-0.0035971
35.81,378.562,16.066,99.814,-0.0033949
35.85,379.062,16.065,99.812,-0.0037818
35.9,379.562,16.065,99.811,-0.0034734
35.95,380.063,16.065,99.809,-0.0035135
36,380.563,16.065,99.807,-0.0038532
36.05,381.063,16.064,99.805,-0.0038413
36.1,381.563,16.064,99.803,-0.0034323
36.15,382.063,16.064,99.802,-0.0038730
36.2,382.563,16.063,99.8,-0.0036165
36.26,383.063,16.063,99.798,-0.0035766
36.31,383.563,16.063,99.796,-0.0038919
36.36,384.063,16.063,99.794,-0.0038920
36.41,384.563,16.062,99.792,-0.0038617
36.46,385.063,16.062,99.79,-0.0036051
36.51,385.563,16.062,99.789,-0.0034203
36.55,386.064,16.061,99.787,-0.0039240
36.6,386.564,16.061,99.785,-0.0033698
36.65,387.064,16.061,99.783,-0.0034208
36.7,387.564,16.06,99.782,-0.0037273
36.75,388.064,16.06,99.78,-0.0042578
36.8,388.564,16.06,99.778,-0.0036181
36.85,389.064,16.06,99.776,-0.0040001
36.9,389.564,16.059,99.773,-0.0042926
36.95,390.064,16.059,99.771,-0.0040777
37,390.564,16.058,99.769,-0.0041920
37.05,391.064,16.058,99.767,-0.0046063
37.1,391.565,16.058,99.765,-0.0043909
37.15,392.065,16.057,99.763,-0.0044517
37.2,392.565,16.057,99.761,-0.0041705
37.25,393.065,16.057,99.758,-0.0040117
37.31,393.565,16.056,99.756,-0.0042166
37.36,394.065,16.056,99.754,-0.0042976
37.41,394.565,16.056,99.752,-0.0047075
37.45,395.065,16.055,99.75,-0.0044652
37.5,395.565,16.055,99.748,-0.0047186
37.55,396.065,16.055,99.745,-0.0046864
37.6,396.565,16.054,99.743,-0.0044837
37.65,397.066,16.054,99.741,-0.0047641
37.7,397.566,16.054,99.738,-0.0051513
37.75,398.066,16.053,99.736,-0.0046254
37.8,398.566,16.053,99.733,-0.0050127
37.85,399.066,16.052,99.731,-0.0048617
37.9,399.566,16.052,99.728,-0.0049218
37.95,400.066,16.052,99.726,-0.0050518
38,400.566,16.051,99.724,-0.0048387
38.05,401.066,16.051,99.721,-0.0051542
38.1,401.566,16.05,99.718,-0.0052018
38.14,402.066,16.05,99.716,-0.0050863
38.19,402.567,16.05,99.713,-0.0054427
38.24,403.067,16.049,99.711,-0.0055787
38.29,403.567,16.049,99.708,-0.0050765
38.34,404.067,16.048,99.705,-0.0053068
38.39,404.567,16.048,99.703,-0.0054827
38.44,405.067,16.047,99.7,-0.0053077
38.49,405.567,16.047,99.697,-0.0054545
38.54,406.067,16.046,99.694,-0.0058150
38.59,406.567,16.046,99.691,-0.0059426
38.64,407.067,16.045,99.688,-0.0059941
38.69,407.567,16.045,99.685,-0.0057692
38.74,408.068,16.044,99.682,-0.0068855
38.79,408.568,16.044,99.679,-0.0062817
38.84,409.068,16.043,99.675,-0.0068199
38.89,409.568,16.043,99.672,-0.0064268
38.94,410.068,16.042,99.669,-0.0066813
38.99,410.568,16.042,99.665,-0.0065018
39.04,411.068,16.041,99.662,-0.0071205
39.09,411.568,16.041,99.658,-0.0069471
39.14,412.068,16.04,99.655,-0.0069703
39.19,412.568,16.039,99.651,-0.0075322
39.25,413.068,16.039,99.647,-0.0076315
39.3,413.568,16.038,99.643,-0.0077909
39.35,414.069,16.038,99.639,-0.0076189
39.4,414.569,16.037,99.635,-0.0083241
39.45,415.069,16.036,99.631,-0.0081952
39.5,415.569,16.036,99.627,-0.0084410
39.55,416.069,16.035,99.623,-0.0090706
39.6,416.569,16.034,99.618,-0.0094218
39.65,417.069,16.033,99.613,-0.0092507
39.7,417.569,16.033,99.609,-0.0099611
39.75,418.069,16.032,99.604,-0.0095282
39.8,418.569,16.031,99.599,-0.0098519
39.85,419.069,16.03,99.594,-0.0101852
39.9,419.57,16.029,99.589,-0.0102829
39.95,420.07,16.029,99.583,-0.0111007
40,420.57,16.028,99.578,-0.0110944
40.06,421.07,16.027,99.572,-0.0111997
40.11,421.57,16.026,99.566,-0.0118503
40.16,422.07,16.025,99.56,-0.0119860
40.21,422.57,16.024,99.554,-0.0128312
40.26,423.07,16.023,99.548,-0.0123762
40.31,423.57,16.022,99.541,-0.0127653
40.36,424.07,16.021,99.535,-0.0132551
40.41,424.57,16.02,99.528,-0.0140813
40.46,425.071,16.019,99.521,-0.0139147
40.51,425.571,16.017,99.514,-0.0143447
40.56,426.071,16.016,99.507,-0.0149281
40.61,426.571,16.015,99.5,-0.0143103
40.66,427.071,16.014,99.493,-0.0144153
40.71,427.571,16.013,99.485,-0.0149233
40.76,428.071,16.012,99.477,-0.0156536
40.81,428.571,16.01,99.469,-0.0159124
40.86,429.071,16.009,99.461,-0.0166974
40.91,429.571,16.008,99.453,-0.0163205
40.96,430.071,16.006,99.444,-0.0169187
41.01,430.572,16.005,99.436,-0.0177328
41.06,431.072,16.003,99.427,-0.0178702
41.11,431.572,16.002,99.418,-0.0177478
41.16,432.072,16.001,99.409,-0.0180900
41.21,432.572,15.999,99.4,-0.0186899
41.26,433.072,15.998,99.391,-0.0188494
41.31,433.572,15.996,99.381,-0.0192998
41.36,434.072,15.994,99.371,-0.0200885
41.41,434.572,15.993,99.361,-0.0200634
41.46,435.072,15.991,99.351,-0.0211626
41.51,435.572,15.989,99.341,-0.0210574
41.56,436.073,15.988,99.33,-0.0216439
41.61,436.573,15.986,99.319,-0.0223313
41.66,437.073,15.984,99.307,-0.0230480
41.71,437.573,15.982,99.296,-0.0238813
41.76,438.073,15.98,99.284,-0.0238961
41.81,438.573,15.978,99.272,-0.0243351
41.86,439.073,15.976,99.259,-0.0249321
41.9,439.573,15.974,99.247,-0.0255203
41.95,440.073,15.972,99.234,-0.0259494
42,440.573,15.97,99.221,-0.0265186
42.05,441.073,15.968,99.208,-0.0272727
42.1,441.573,15.966,99.194,-0.0279398
42.15,442.074,15.964,99.18,-0.0286147
42.2,442.574,15.961,99.165,-0.0293170
42.25,443.074,15.959,99.151,-0.0298068
42.3,443.574,15.957,99.136,-0.0306319
42.35,444.074,15.954,99.12,-0.0312386
42.4,444.574,15.951,99.104,-0.0320163
42.45,445.074,15.949,99.088,-0.0332449
42.5,445.574,15.946,99.071,-0.0344495
42.55,446.074,15.943,99.054,-0.0353017
42.6,446.574,15.94,99.036,-0.0361673
42.65,447.074,15.938,99.018,-0.0372253
42.7,447.575,15.935,98.999,-0.0382541
42.75,448.075,15.931,98.98,-0.0390768
42.8,448.575,15.928,98.96,-0.0397136
42.85,449.075,15.925,98.94,-0.0404719
42.9,449.575,15.922,98.919,-0.0418784
42.95,450.075,15.918,98.898,-0.0430235
43,450.575,15.915,98.877,-0.0437671
43.05,451.075,15.911,98.854,-0.0451566
43.1,451.575,15.908,98.831,-0.0460623
43.15,452.075,15.904,98.808,-0.0479205
43.2,452.575,15.9,98.783,-0.0491571
43.25,453.076,15.896,98.758,-0.0502088
43.3,453.576,15.892,98.733,-0.0508375
43.35,454.076,15.888,98.707,-0.0521205
43.4,454.576,15.883,98.681,-0.0531614
43.44,455.076,15.879,98.654,-0.0548145
43.49,455.576,15.875,98.626,-0.0567715
43.54,456.076,15.87,98.598,-0.0590794
43.59,456.576,15.865,98.567,-0.0618363
43.64,457.076,15.86,98.535,-0.0651869
43.69,457.576,15.854,98.501,-0.0676909
43.74,458.076,15.848,98.462,-0.0742737
43.79,458.577,15.842,98.424,-0.0743680
43.84,459.077,15.836,98.385,-0.0785934
43.89,459.577,15.829,98.345,-0.0826283
43.94,460.077,15.822,98.3,-0.0923199
43.99,460.577,15.815,98.254,-0.0989596
44.04,461.077,15.807,98.204,-0.1042980
44.09,461.577,15.798,98.15,-0.1095760
44.14,462.077,15.789,98.095,-0.1152640
44.19,462.577,15.78,98.04,-0.1143900
44.24,463.077,15.771,97.983,-0.1141330
44.29,463.577,15.761,97.924,-0.1191650
44.34,464.078,15.752,97.863,-0.1207310
44.39,464.578,15.742,97.801,-0.1260160
44.44,465.078,15.731,97.736,-0.1326720
44.49,465.578,15.721,97.67,-0.1372200
44.54,466.078,15.71,97.602,-0.1386220
44.59,466.578,15.698,97.528,-0.1425390
44.64,467.078,15.685,97.451,-0.1557670
44.69,467.578,15.672,97.369,-0.1602040
44.74,468.078,15.659,97.286,-0.1717600
44.79,468.578,15.645,97.2,-0.1761400
44.84,469.078,15.631,97.11,-0.1794010
44.89,469.578,15.616,97.022,-0.1818390
44.94,470.079,15.602,96.932,-0.1822270
44.99,470.579,15.586,96.836,-0.1949630
45.04,471.079,15.571,96.743,-0.1890230
45.09,471.579,15.555,96.643,-0.2009480
45.14,472.079,15.539,96.541,-0.2158750
45.19,472.579,15.521,96.43,-0.2222700
45.24,473.079,15.503,96.317,-0.2359280
45.29,473.579,15.484,96.199,-0.2471230
45.34,474.079,15.464,96.075,-0.2566350
45.39,474.579,15.443,95.946,-0.2645990
45.45,475.079,15.421,95.806,-0.2839310
45.5,475.58,15.399,95.67,-0.2784390
45.55,476.08,15.376,95.528,-0.2958390
45.6,476.58,15.352,95.381,-0.2986380
45.65,477.08,15.328,95.229,-0.3163180
45.7,477.58,15.301,95.06,-0.3356940
45.75,478.08,15.273,94.891,-0.3243040
45.8,478.58,15.246,94.719,-0.3507830
45.85,479.08,15.216,94.538,-0.3950180
45.9,479.58,15.186,94.346,-0.3779470
45.95,480.08,15.154,94.15,-0.4105190
46,480.58,15.12,93.937,-0.4317310
46.05,481.081,15.085,93.721,-0.4442760
46.1,481.581,15.049,93.496,-0.4698960
46.16,482.081,15.009,93.247,-0.5044330
46.21,482.581,14.967,92.988,-0.4689750
46.26,483.081,14.923,92.714,-0.5382800
46.31,483.581,14.881,92.455,-0.5054590
46.36,484.081,14.84,92.2,-0.5236510
46.41,484.581,14.795,91.918,-0.5868410
46.46,485.081,14.745,91.607,-0.6615290
46.51,485.581,14.689,91.264,-0.6780550
46.56,486.081,14.635,90.923,-0.7060640
46.61,486.582,14.575,90.554,-0.7664400
46.66,487.082,14.514,90.177,-0.7934040
46.71,487.582,14.454,89.798,-0.7093460
46.76,488.082,14.398,89.45,-0.6953830
46.8,488.582,14.336,89.07,-0.8251640
46.85,489.082,14.271,88.665,-0.8031880
46.9,489.582,14.201,88.228,-0.8858720
46.95,490.082,14.127,87.772,-0.8930570
47,490.582,14.052,87.305,-0.9328220
47.05,491.082,13.979,86.849,-0.9308230
47.1,491.582,13.898,86.345,-1.05722
47.15,492.083,13.81,85.802,-1.11548
47.19,492.583,13.713,85.198,-1.34386
47.24,493.083,13.608,84.543,-1.29732
47.29,493.583,13.503,83.89,-1.37096
47.34,494.083,13.392,83.201,-1.32431
47.39,494.583,13.287,82.551,-1.35403
47.44,495.083,13.174,81.847,-1.46109
47.49,495.583,13.059,81.132,-1.35608
47.54,496.083,12.941,80.398,-1.5207
47.59,496.583,12.802,79.535,-1.32052
47.64,497.083,12.695,78.873,-1.39785
47.69,497.583,12.579,78.151,-1.52764
47.74,498.084,12.45,77.351,-1.67151
47.79,498.584,12.324,76.57,-1.52205
47.84,499.084,12.188,75.724,-1.7791
47.89,499.584,12.042,74.812,-1.91387
47.94,500.084,11.888,73.861,-1.95521
48,500.584,11.726,72.852,-2.01253
48.05,501.084,11.564,71.847,-2.11579
48.1,501.584,11.41,70.888,-1.74366
48.15,502.084,11.249,69.89,-2.06176
48.2,502.584,11.08,68.841,-2.05507
48.25,503.084,10.911,67.791,-2.23118
48.3,503.585,10.722,66.617,-2.23867
48.35,504.085,10.541,65.488,-2.38829
48.4,504.585,10.35,64.303,-2.13422
48.45,505.085,10.155,63.09,-2.47767
48.51,505.585,9.943,61.776,-2.86575
48.56,506.085,9.728,60.439,-2.40196
48.61,506.585,9.514,59.11,-2.73516
48.66,507.085,9.294,57.744,-2.70042
48.71,507.585,9.079,56.408,-2.6281
48.76,508.085,8.861,55.055,-2.62459
48.8,508.585,8.642,53.693,-2.94399
48.85,509.086,8.393,52.147,-2.893
48.91,509.586,8.146,50.609,-3.26958
48.96,510.086,7.9,49.084,-3.16834
49.01,510.586,7.635,47.434,-3.18034
49.06,511.086,7.385,45.884,-3.27318
49.11,511.586,7.119,44.228,-3.16999
49.15,512.086,6.859,42.614,-3.29354
49.2,512.586,6.591,40.949,-3.37225
49.25,513.086,6.311,39.21,-3.51624
49.3,513.586,6.026,37.44,-3.48517
49.35,514.086,5.742,35.677,-3.43415
49.4,514.587,5.462,33.934,-3.64522
49.45,515.087,5.166,32.096,-3.59251
49.5,515.587,4.884,30.342,-3.56122
49.55,516.087,4.586,28.495,-3.65791
49.6,516.587,4.29,26.652,-3.65599
49.65,517.087,4.001,24.857,-3.6291
49.7,517.587,3.71,23.049,-3.59919
49.75,518.087,3.429,21.301,-3.51957
49.8,518.587,3.149,19.563,-3.43777
49.85,519.087,2.873,17.849,-3.38907
49.9,519.587,2.604,16.181,-3.32946
49.95,520.088,2.337,14.52,-3.35453
50,520.588,2.079,12.919,-3.15911
50.05,521.088,1.823,11.323,-3.04328
50.1,521.588,1.597,9.921,-2.59114
50.15,522.088,1.389,8.63,-2.53137
50.2,522.588,1.185,7.36,-2.39062
50.25,523.088,1.002,6.226,-2.21511
50.3,523.588,0.8330000,5.173,-2.04045
50.35,524.088,0.6740000,4.189,-1.74744
50.4,524.588,0.5440000,3.379,-1.52192
50.45,525.088,0.4290000,2.664,-1.31971
50.5,525.588,0.3340000,2.076,-1.08361
50.55,526.089,0.2540000,1.575,-0.8942480
50.6,526.589,0.1900000,1.179,-0.6760420
50.65,527.089,0.1420000,0.8820000,-0.5102060
50.7,527.589,0.1070000,0.6630000,-0.3585310
50.75,528.089,0.0820000,0.5090000,-0.2341580
50.8,528.589,0.0660000,0.4070000,-0.1607280
50.85,529.089,0.0560000,0.3460000,-0.0943327
50.9,529.589,0.0500000,0.3110000,-0.0497440
50.95,530.089,0.0470000,0.2930000,-0.0306963
51,530.589,0.0450000,0.2770000,-0.0305439
51.05,531.089,0.0420000,0.2630000,-0.0273168
51.1,531.59,0.0400000,0.2500000,-0.0225576
51.15,532.09,0.0390000,0.2400000,-0.0185974
51.2,532.59,0.0370000,0.2310000,-0.0147828
51.25,533.09,0.0360000,0.2250000,-0.0114277
51.3,533.59,0.0350000,0.2200000,-0.0092042
51.35,534.09,0.0350000,0.2160000,-0.0068993
51.4,534.59,0.0340000,0.2120000,-0.0054749
51.45,535.09,0.0340000,0.2100000,-0.0043454
51.5,535.59,0.0330000,0.2080000,-0.0032773
51.55,536.09,0.0330000,0.2070000,-0.0028321
51.6,536.59,0.0330000,0.2050000,-0.0019237
51.65,537.091,0.0330000,0.2040000,-0.0017738
51.7,537.591,0.0330000,0.2030000,-0.0014831
51.75,538.091,0.0330000,0.2030000,-0.0008488
51.8,538.591,0.0330000,0.2020000,-0.0006612
51.85,539.091,0.0330000,0.2020000,-0.0006779
51.9,539.591,0.0330000,0.2020000,-0.0004388
51.95,540.091,0.0320000,0.2020000,-0.0008703
52,540.591,0.0320000,0.2020000,-0.0003965
52.05,541.091,0.0320000,0.2010000,-0.0001769
52.1,541.591,0.0320000,0.2010000,-0.0001738
52.15,542.091,0.0320000,0.2010000,-0.0001539
52.2,542.592,0.0320000,0.2010000,-0.0002059
52.25,543.092,0.0320000,0.2010000,0.0005058
52.3,543.592,0.0320000,0.2010000,0.0001852
52.35,544.092,0.0320000,0.2010000,0.0001842
52.4,544.592,0.0320000,0.2010000,0.0000495
52.45,545.092,0.0320000,0.2010000,-0.0001683
52.5,545.592,0.0320000,0.2010000,-0.0001143
52.55,546.092,0.0320000,0.2010000,0.0002312
52.61,546.592,0.0320000,0.2010000,0.0000449
52.66,547.092,0.0320000,0.2010000,0.0000972
52.71,547.592,0.0320000,0.2010000,0.0002308
52.77,548.093,0.0320000,0.2010000,0.0002400
52.81,548.593,0.0320000,0.2010000,0.0000442
52.86,549.093,0.0320000,0.2010000,-0.0000897
52.9,549.593,0.0320000,0.2010000,-0.0001762
52.94,550.093,0.0320000,0.2010000,0.0001305
52.99,550.593,0.0320000,0.2010000,0.0002792
53.04,551.093,0.0320000,0.2010000,0.0008762
53.09,551.593,0.0320000,0.2010000,0.0000457
53.14,552.093,0.0320000,0.2010000,0.0001912
53.19,552.593,0.0320000,0.2010000,-0.0001624
53.25,553.093,0.0320000,0.2010000,-0.0000735
53.3,553.593,0.0320000,0.2010000,0.0000398
53.35,554.094,0.0320000,0.2010000,0.0000892
53.4,554.594,0.0320000,0.2010000,0.0002134
53.45,555.094,0.0320000,0.2010000,0.0001019
53.51,555.594,0.0320000,0.2020000,-0.0000526
53.56,556.094,0.0320000,0.2020000,0.0000663
53.61,556.594,0.0320000,0.2020000,0.0002007
53.66,557.094,0.0320000,0.2020000,0.0003453
53.71,557.594,0.0320000,0.2020000,0.0001685
53.76,558.094,0.0320000,0.2020000,-0.0003412
53.81,558.594,0.0320000,0.2020000,0.0000861
53.85,559.094,0.0320000,0.2020000,-0.0002400
53.9,559.595,0.0320000,0.2020000,0.0001850
53.95,560.095,0.0320000,0.2020000,0.0003083
54,560.595,0.0320000,0.2020000,0.0000696
54.05,561.095,0.0320000,0.2020000,-0.0000037
54.1,561.595,0.0320000,0.2020000,0.0000252
54.15,562.095,0.0320000,0.2020000,0.0002131
54.2,562.595,0.0320000,0.2020000,0.0003048
54.25,563.095,0.0320000,0.2020000,-0.0000383
54.3,563.595,0.0320000,0.2020000,0.0002654
54.35,564.095,0.0320000,0.2020000,0.0002975
54.4,564.595,0.0320000,0.2020000,-0.0000649
54.45,565.096,0.0320000,0.2020000,-0.0003860
54.5,565.596,0.0320000,0.2020000,0.0000896
54.55,566.096,0.0320000,0.2020000,0.0002335
54.6,566.596,0.0330000,0.2020000,-0.0002129
54.65,567.096,0.0330000,0.2020000,0.0002259
54.7,567.596,0.0330000,0.2020000,0.0000052
54.75,568.096,0.0330000,0.2020000,0.0001482
54.8,568.596,0.0330000,0.2020000,-0.0000529
54.85,569.096,0.0330000,0.2020000,0.0001607
54.9,569.596,0.0330000,0.2020000,-0.0002100
54.95,570.096,0.0330000,0.2020000,0.0000238
55,570.597,0.0330000,0.2020000,0.0001375
55.05,571.097,0.0330000,0.2020000,0.0001167
55.1,571.597,0.0330000,0.2020000,0.0000592
55.15,572.097,0.0330000,0.2020000,0.0001391
55.2,572.597,0.0330000,0.2020000,0.0003338
55.25,573.097,0.0330000,0.2020000,0.0004360
55.3,573.597,0.0330000,0.2020000,0.0002801
55.36,574.097,0.0330000,0.2020000,0.0001205
55.41,574.597,0.0330000,0.2020000,-0.0001196
55.46,575.097,0.0330000,0.2020000,0.0000894
55.51,575.597,0.0330000,0.2020000,0.0002789
55.56,576.098,0.0330000,0.2020000,0.0001808
55.61,576.598,0.0330000,0.2020000,0.0002446
55.66,577.098,0.0330000,0.2020000,-0.0001581
55.71,577.598,0.0330000,0.2020000,0.0000390
55.75,578.098,0.0330000,0.2020000,-0.0002549
55.8,578.598,0.0330000,0.2020000,-0.0001872
55.85,579.098,0.0330000,0.2020000,0.0001424
55.9,579.598,0.0330000,0.2020000,-0.0002804
55.95,580.098,0.0330000,0.2020000,-0.0003007
56,580.598,0.0330000,0.2020000,0.0004611
56.05,581.098,0.0330000,0.2030000,-0.0001601
56.1,581.598,0.0330000,0.2030000,-0.0004294
56.16,582.099,0.0330000,0.2020000,-0.0001987
56.2,582.599,0.0330000,0.2020000,0.0003491
56.25,583.099,0.0330000,0.2020000,-0.0003323
56.3,583.599,0.0330000,0.2020000,-0.0003923
56.35,584.099,0.0330000,0.2020000,-0.0000380
56.4,584.599,0.0330000,0.2020000,-0.0000050
56.45,585.099,0.0330000,0.2020000,-0.0003208
56.5,585.599,0.0330000,0.2020000,-0.0000201
56.55,586.099,0.0330000,0.2020000,0.0001963
56.6,586.599,0.0330000,0.2020000,0.0007985
56.65,587.099,0.0330000,0.2020000,-0.0001810
56.7,587.6,0.0330000,0.2020000,-0.0002037
56.75,588.1,0.0330000,0.2020000,-0.0000677
56.8,588.6,0.0330000,0.2020000,-0.0005061
56.85,589.1,0.0320000,0.2020000,-0.0001820
56.9,589.6,0.0320000,0.2020000,-0.0002682
56.94,590,0.0320000,0.2020000,0.0000313