File: R/rHDPE_App/app/www/Output/TGA/Condensed_Data/Resin9_0_.csv
0.6800000,30,11.015,100.02,0.0045686
0.7600000,30.5001,11.015,100.024,0.0040177
0.8300000,31.0002,11.016,100.027,0.0084891
0.8900000,31.5003,11.016,100.029,0.0010379
0.9500000,32.0004,11.016,100.031,0.0002235
1.01,32.5004,11.016,100.032,0.0009830
1.07,33.0005,11.016,100.034,0.0039169
1.13,33.5006,11.016,100.035,0.0037019
1.19,34.0007,11.017,100.036,0.0005231
1.24,34.5008,11.017,100.037,0.0007250
1.3,35.0009,11.017,100.038,0.0018501
1.36,35.501,11.017,100.039,0.0001529
1.41,36.0011,11.017,100.039,0.0027395
1.47,36.5012,11.017,100.04,0.0006557
1.52,37.0013,11.017,100.041,0.0026104
1.58,37.5013,11.017,100.042,0.0009488
1.63,38.0014,11.017,100.043,0.0021379
1.68,38.5015,11.017,100.043,0.0021302
1.74,39.0016,11.017,100.044,0.0010872
1.79,39.5017,11.018,100.045,0.0029033
1.85,40.0018,11.018,100.046,0.0012267
1.9,40.5019,11.018,100.047,0.0017141
1.95,41.002,11.018,100.047,0.0026854
2.01,41.5021,11.018,100.048,0.0007794
2.06,42.0021,11.018,100.049,0.0008754
2.11,42.5022,11.018,100.05,0.0018931
2.17,43.0023,11.018,100.05,0.0008728
2.22,43.5024,11.018,100.051,0.0016461
2.27,44.0025,11.018,100.052,0.0021277
2.33,44.5026,11.018,100.053,0.0014967
2.38,45.0027,11.018,100.053,0.0010603
2.43,45.5028,11.019,100.054,0.0025019
2.48,46.0029,11.019,100.055,0.0012004
2.54,46.5029,11.019,100.056,0.0009109
2.59,47.003,11.019,100.057,0.0019139
2.64,47.5031,11.019,100.057,0.0023889
2.69,48.0032,11.019,100.058,0.0019084
2.74,48.5033,11.019,100.059,0.0010004
2.8,49.0034,11.019,100.059,0.0015703
2.85,49.5035,11.019,100.06,0.0022321
2.9,50.0036,11.019,100.061,0.0016602
2.95,50.5037,11.019,100.062,0.0012789
3,51.0038,11.02,100.063,0.0016079
3.06,51.5038,11.02,100.064,0.0016053
3.11,52.0039,11.02,100.064,0.0016500
3.16,52.504,11.02,100.065,0.0008474
3.21,53.0041,11.02,100.066,0.0011756
3.26,53.5042,11.02,100.066,0.0014562
3.31,54.0043,11.02,100.067,0.0011735
3.36,54.5044,11.02,100.068,0.0018284
3.41,55.0045,11.02,100.069,0.0017807
3.46,55.5046,11.02,100.069,0.0019663
3.52,56.0046,11.02,100.07,0.0013567
3.57,56.5047,11.02,100.071,0.0016355
3.62,57.0048,11.02,100.072,0.0014939
3.67,57.5049,11.021,100.072,0.0015853
3.72,58.005,11.021,100.073,0.0014904
3.77,58.5051,11.021,100.073,0.0010704
3.82,59.0052,11.021,100.074,0.0006977
3.87,59.5053,11.021,100.075,0.0009302
3.92,60.0054,11.021,100.075,0.0010694
3.98,60.5054,11.021,100.076,0.0013007
4.03,61.0055,11.021,100.077,0.0013923
4.08,61.5056,11.021,100.077,0.0013444
4.13,62.0057,11.021,100.078,0.0014828
4.18,62.5058,11.021,100.079,0.0011574
4.23,63.0059,11.021,100.079,0.0010645
4.28,63.506,11.021,100.08,0.0010177
4.33,64.0061,11.021,100.08,0.0011560
4.38,64.5062,11.022,100.081,0.0012017
4.43,65.0063,11.022,100.082,0.0010619
4.48,65.5063,11.022,100.082,0.0010607
4.53,66.0064,11.022,100.083,0.0013833
4.58,66.5065,11.022,100.084,0.0016135
4.63,67.0066,11.022,100.084,0.0009217
4.68,67.5067,11.022,100.085,0.0006911
4.73,68.0068,11.022,100.085,0.0011977
4.78,68.5069,11.022,100.086,0.0008289
4.83,69.007,11.022,100.086,0.0011964
4.88,69.5071,11.022,100.087,0.0011042
4.93,70.0071,11.022,100.087,0.0009655
4.98,70.5072,11.022,100.088,0.0010570
5.03,71.0073,11.022,100.088,0.0006894
5.08,71.5074,11.022,100.089,0.0011033
5.13,72.0075,11.022,100.089,0.0005516
5.18,72.5076,11.022,100.09,0.0010570
5.24,73.0077,11.023,100.09,0.0011468
5.29,73.5078,11.023,100.091,0.0008255
5.34,74.0079,11.023,100.091,0.0012385
5.39,74.5079,11.023,100.091,0.0008716
5.44,75.008,11.023,100.092,0.0010550
5.49,75.5081,11.023,100.092,0.0006418
5.54,76.0082,11.023,100.093,0.0007336
5.59,76.5083,11.023,100.093,0.0008242
5.64,77.0084,11.023,100.094,0.0008243
5.69,77.5085,11.023,100.094,0.0007786
5.74,78.0086,11.023,100.095,0.0008246
5.79,78.5087,11.023,100.095,0.0004581
5.84,79.0088,11.023,100.095,0.0004121
5.89,79.5088,11.023,100.096,0.0004118
5.94,80.0089,11.023,100.096,0.0006860
5.99,80.509,11.023,100.096,0.0005489
6.04,81.0091,11.023,100.097,0.0007323
6.09,81.5092,11.023,100.097,0.0009611
6.14,82.0093,11.023,100.098,0.0006872
6.19,82.5094,11.023,100.098,0.0005040
6.24,83.0095,11.023,100.098,0.0006413
6.29,83.5096,11.023,100.099,0.0004581
6.34,84.0096,11.023,100.099,0.0009158
6.39,84.5097,11.024,100.099,0.0007326
6.44,85.0098,11.024,100.099,0.0008697
6.49,85.5099,11.024,100.1,0.0005945
6.54,86.01,11.024,100.1,0.0004576
6.59,86.5101,11.024,100.1,0.0004572
6.64,87.0102,11.024,100.1,0.0006403
6.69,87.5103,11.024,100.101,0.0009609
6.74,88.0104,11.024,100.101,0.0004574
6.79,88.5104,11.024,100.101,0.0005949
6.84,89.0105,11.024,100.101,0.0005036
6.89,89.5106,11.024,100.102,0.0005950
6.94,90.0107,11.024,100.102,0.0005952
6.99,90.5108,11.024,100.102,0.0003202
7.04,91.0109,11.024,100.102,0.0005031
7.09,91.511,11.024,100.103,0.0000914
7.14,92.0111,11.024,100.103,0.0000914
7.19,92.5112,11.024,100.103,0.0003196
7.24,93.0113,11.024,100.103,-0.0001368
7.29,93.5113,11.024,100.103,0.0004570
7.34,94.0114,11.024,100.104,0.0004120
7.39,94.5115,11.024,100.104,0.0003665
7.44,95.0116,11.024,100.104,0.0003206
7.49,95.5117,11.024,100.105,0.0006407
7.54,96.0118,11.024,100.105,0.0003660
7.59,96.5119,11.024,100.105,0.0007776
7.64,97.012,11.024,100.105,0.0008235
7.69,97.5121,11.024,100.105,0.0002287
7.74,98.0121,11.024,100.106,0.0003660
7.79,98.5122,11.024,100.106,0.0005034
7.84,99.0123,11.024,100.106,0.0005490
7.89,99.5124,11.024,100.106,0.0006404
7.94,100.013,11.024,100.106,0.0004571
7.99,100.513,11.024,100.106,0.0001372
8.04,101.013,11.024,100.106,-0.0000914
8.09,101.513,11.024,100.106,0.0001371
8.14,102.013,11.024,100.106,0.0000000
8.19,102.513,11.024,100.106,0.0000000
8.24,103.013,11.024,100.106,0.0003205
8.29,103.513,11.024,100.106,0.0000000
8.34,104.013,11.024,100.106,0.0000457
8.39,104.513,11.024,100.106,-0.0000000
8.44,105.013,11.024,100.106,0.0000000
8.49,105.513,11.024,100.106,0.0003202
8.53,106.014,11.024,100.106,-0.0001373
8.58,106.514,11.024,100.106,0.0001374
8.63,107.014,11.024,100.107,0.0001374
8.68,107.514,11.024,100.106,0.0003209
8.73,108.014,11.024,100.106,-0.0001374
8.78,108.514,11.024,100.106,0.0001373
8.83,109.014,11.024,100.106,0.0001375
8.88,109.514,11.024,100.106,0.0000000
8.93,110.014,11.024,100.106,0.0002291
8.98,110.514,11.024,100.106,0.0001372
9.03,111.014,11.024,100.106,0.0001830
9.08,111.515,11.024,100.106,0.0001375
9.13,112.015,11.024,100.106,0.0004122
9.18,112.515,11.024,100.106,0.0004118
9.23,113.015,11.024,100.106,-0.0005949
9.28,113.515,11.024,100.106,0.0000000
9.33,114.015,11.024,100.106,-0.0001372
9.38,114.515,11.024,100.106,-0.0003664
9.43,115.015,11.024,100.106,-0.0005500
9.48,115.515,11.024,100.106,-0.0001833
9.53,116.015,11.024,100.106,-0.0006413
9.58,116.515,11.024,100.106,-0.0005498
9.63,117.016,11.024,100.106,-0.0002292
9.68,117.516,11.024,100.106,-0.0000458
9.73,118.016,11.024,100.106,-0.0000459
9.78,118.516,11.024,100.106,-0.0002751
9.83,119.016,11.024,100.106,-0.0002293
9.88,119.516,11.024,100.106,-0.0000917
9.93,120.016,11.024,100.106,-0.0004582
9.98,120.516,11.024,100.106,-0.0003209
10.03,121.016,11.024,100.106,-0.0002292
10.08,121.516,11.024,100.106,0.0000000
10.13,122.016,11.024,100.105,-0.0000458
10.18,122.517,11.024,100.106,-0.0000916
10.23,123.017,11.024,100.106,-0.0000458
10.28,123.517,11.024,100.106,0.0005959
10.33,124.017,11.024,100.106,0.0000000
10.38,124.517,11.024,100.106,0.0000914
10.43,125.017,11.024,100.106,-0.0000915
10.48,125.517,11.024,100.106,0.0002749
10.53,126.017,11.024,100.106,0.0001835
10.58,126.517,11.024,100.106,0.0003671
10.64,127.017,11.024,100.106,0.0000919
10.69,127.517,11.024,100.106,-0.0002296
10.74,128.018,11.024,100.106,-0.0000917
10.79,128.518,11.024,100.106,0.0001375
10.84,129.018,11.024,100.106,-0.0003671
10.89,129.518,11.024,100.106,-0.0000460
10.94,130.018,11.024,100.106,0.0003676
10.99,130.518,11.024,100.106,0.0005048
11.04,131.018,11.024,100.107,-0.0001375
11.09,131.518,11.024,100.106,-0.0005497
11.14,132.018,11.024,100.106,-0.0003206
11.19,132.518,11.024,100.106,-0.0005035
11.24,133.018,11.024,100.106,-0.0008227
11.29,133.518,11.024,100.105,-0.0009585
11.34,134.019,11.024,100.105,-0.0011403
11.39,134.519,11.024,100.104,-0.0015049
11.44,135.019,11.024,100.104,-0.0016880
11.49,135.519,11.024,100.103,-0.0019647
11.54,136.019,11.024,100.102,-0.0025073
11.58,136.519,11.024,100.1,-0.0028657
11.63,137.019,11.024,100.099,-0.0026347
11.68,137.519,11.023,100.098,-0.0027238
11.73,138.019,11.023,100.096,-0.0031341
11.78,138.519,11.023,100.095,-0.0030427
11.83,139.019,11.023,100.093,-0.0023173
11.88,139.52,11.023,100.092,-0.0025012
11.93,140.02,11.023,100.091,-0.0025494
11.98,140.52,11.023,100.09,-0.0020526
12.03,141.02,11.022,100.089,-0.0019640
12.08,141.52,11.022,100.088,-0.0020576
12.13,142.02,11.022,100.087,-0.0022873
12.18,142.52,11.022,100.085,-0.0025648
12.23,143.02,11.022,100.085,-0.0015591
12.28,143.52,11.022,100.084,-0.0016544
12.33,144.02,11.022,100.083,-0.0023926
12.38,144.52,11.022,100.082,-0.0019776
12.43,145.021,11.022,100.081,-0.0017475
12.48,145.521,11.021,100.08,-0.0016099
12.53,146.021,11.021,100.079,-0.0015186
12.58,146.521,11.021,100.078,-0.0018842
12.63,147.021,11.021,100.078,-0.0019310
12.68,147.521,11.021,100.077,-0.0019776
12.74,148.021,11.021,100.076,-0.0014238
12.79,148.521,11.021,100.075,-0.0017878
12.84,149.021,11.021,100.074,-0.0019300
12.89,149.521,11.021,100.073,-0.0020230
12.94,150.021,11.021,100.072,-0.0016091
12.99,150.522,11.02,100.072,-0.0014220
13.04,151.022,11.02,100.071,-0.0015585
13.09,151.522,11.02,100.07,-0.0017383
13.14,152.022,11.02,100.069,-0.0016487
13.19,152.522,11.02,100.068,-0.0018794
13.24,153.022,11.02,100.067,-0.0022477
13.29,153.522,11.02,100.066,-0.0020171
13.34,154.022,11.02,100.065,-0.0017870
13.39,154.522,11.02,100.064,-0.0014665
13.44,155.022,11.02,100.064,-0.0019696
13.49,155.522,11.02,100.063,-0.0023373
13.54,156.023,11.019,100.062,-0.0021534
13.59,156.523,11.019,100.061,-0.0020610
13.64,157.023,11.019,100.06,-0.0021520
13.69,157.523,11.019,100.059,-0.0022451
13.74,158.023,11.019,100.058,-0.0019701
13.79,158.523,11.019,100.057,-0.0022921
13.84,159.023,11.019,100.056,-0.0021998
13.89,159.523,11.019,100.054,-0.0023831
13.94,160.023,11.018,100.053,-0.0022477
13.99,160.523,11.018,100.052,-0.0022012
14.04,161.023,11.018,100.051,-0.0022010
14.09,161.523,11.018,100.05,-0.0022915
14.14,162.024,11.018,100.049,-0.0023831
14.19,162.524,11.018,100.048,-0.0023810
14.24,163.024,11.018,100.047,-0.0024725
14.29,163.524,11.018,100.046,-0.0024732
14.34,164.024,11.017,100.044,-0.0023352
14.39,164.524,11.017,100.043,-0.0026569
14.44,165.024,11.017,100.042,-0.0022440
14.49,165.524,11.017,100.041,-0.0026099
14.54,166.024,11.017,100.04,-0.0024267
14.59,166.524,11.017,100.038,-0.0023825
14.64,167.024,11.017,100.037,-0.0028433
14.69,167.525,11.017,100.036,-0.0024294
14.74,168.025,11.016,100.035,-0.0028396
14.79,168.525,11.016,100.033,-0.0030228
14.84,169.025,11.016,100.032,-0.0022463
14.89,169.525,11.016,100.031,-0.0020626
14.94,170.025,11.016,100.03,-0.0022904
14.99,170.525,11.016,100.028,-0.0030698
15.04,171.025,11.016,100.027,-0.0024737
15.09,171.525,11.015,100.025,-0.0027498
15.14,172.025,11.015,100.024,-0.0027035
15.19,172.525,11.015,100.023,-0.0030700
15.24,173.026,11.015,100.021,-0.0034341
15.29,173.526,11.015,100.02,-0.0024263
15.34,174.026,11.015,100.019,-0.0027015
15.39,174.526,11.014,100.017,-0.0031153
15.44,175.026,11.014,100.016,-0.0023821
15.49,175.526,11.014,100.014,-0.0025676
15.54,176.026,11.014,100.013,-0.0023367
15.59,176.526,11.014,100.011,-0.0022926
15.64,177.026,11.014,100.01,-0.0028414
15.69,177.526,11.014,100.009,-0.0029293
15.74,178.026,11.013,100.007,-0.0027010
15.79,178.527,11.013,100.006,-0.0026557
15.84,179.027,11.013,100.004,-0.0027943
15.89,179.527,11.013,100.003,-0.0029304
15.94,180.027,11.013,100.002,-0.0024737
15.99,180.527,11.013,100,-0.0026552
16.04,181.027,11.012,99.999,-0.0025148
16.09,181.527,11.012,99.997,-0.0031084
16.14,182.027,11.012,99.996,-0.0028362
16.19,182.527,11.012,99.994,-0.0028809
16.24,183.027,11.012,99.993,-0.0031112
16.29,183.527,11.012,99.991,-0.0024268
16.34,184.028,11.011,99.99,-0.0031599
16.39,184.528,11.011,99.988,-0.0033946
16.44,185.028,11.011,99.987,-0.0033477
16.49,185.528,11.011,99.985,-0.0038056
16.54,186.028,11.011,99.983,-0.0038962
16.59,186.528,11.011,99.982,-0.0031172
16.64,187.028,11.01,99.98,-0.0037139
16.69,187.528,11.01,99.978,-0.0039890
16.74,188.028,11.01,99.977,-0.0032997
16.79,188.528,11.01,99.975,-0.0032539
16.84,189.028,11.01,99.973,-0.0035282
16.89,189.528,11.009,99.971,-0.0037122
16.94,190.029,11.009,99.97,-0.0037570
16.99,190.529,11.009,99.968,-0.0036623
17.04,191.029,11.009,99.966,-0.0035266
17.09,191.529,11.009,99.964,-0.0034363
17.14,192.029,11.009,99.963,-0.0035250
17.19,192.529,11.008,99.961,-0.0034808
17.24,193.029,11.008,99.959,-0.0032982
17.29,193.529,11.008,99.958,-0.0032979
17.34,194.029,11.008,99.956,-0.0035272
17.39,194.529,11.008,99.954,-0.0035256
17.44,195.029,11.007,99.952,-0.0034350
17.49,195.53,11.007,99.951,-0.0033905
17.54,196.03,11.007,99.949,-0.0035305
17.59,196.53,11.007,99.947,-0.0038969
17.64,197.03,11.007,99.946,-0.0038067
17.69,197.53,11.006,99.944,-0.0040833
17.74,198.03,11.006,99.942,-0.0039001
17.79,198.53,11.006,99.94,-0.0035322
17.84,199.03,11.006,99.938,-0.0037156
17.89,199.53,11.006,99.936,-0.0035757
17.94,200.03,11.005,99.934,-0.0032958
17.99,200.53,11.005,99.933,-0.0036573
18.04,201.031,11.005,99.931,-0.0038955
18.09,201.531,11.005,99.929,-0.0038518
18.14,202.031,11.005,99.927,-0.0035256
18.19,202.531,11.004,99.926,-0.0034334
18.24,203.031,11.004,99.924,-0.0036647
18.29,203.531,11.004,99.922,-0.0037559
18.34,204.031,11.004,99.92,-0.0033437
18.39,204.531,11.004,99.918,-0.0033904
18.44,205.031,11.003,99.916,-0.0037132
18.49,205.531,11.003,99.914,-0.0038080
18.54,206.031,11.003,99.912,-0.0035344
18.59,206.532,11.003,99.911,-0.0038984
18.64,207.032,11.003,99.909,-0.0040774
18.69,207.532,11.002,99.907,-0.0039872
18.74,208.032,11.002,99.905,-0.0032982
18.79,208.532,11.002,99.903,-0.0038479
18.84,209.032,11.002,99.901,-0.0040740
18.89,209.532,11.001,99.899,-0.0034824
18.94,210.032,11.001,99.897,-0.0037102
18.99,210.532,11.001,99.895,-0.0037156
19.04,211.032,11.001,99.893,-0.0036249
19.09,211.532,11.001,99.891,-0.0037580
19.14,212.033,11,99.889,-0.0035747
19.19,212.533,11,99.887,-0.0039897
19.24,213.033,11,99.885,-0.0040349
19.29,213.533,11,99.883,-0.0041724
19.34,214.033,11,99.881,-0.0037098
19.39,214.533,10.999,99.879,-0.0039341
19.44,215.033,10.999,99.877,-0.0043359
19.49,215.533,10.999,99.875,-0.0040120
19.54,216.033,10.999,99.873,-0.0041050
19.59,216.533,10.998,99.872,-0.0037440
19.64,217.033,10.998,99.87,-0.0039791
19.69,217.533,10.998,99.868,-0.0036653
19.74,218.034,10.998,99.866,-0.0039497
19.79,218.534,10.998,99.864,-0.0037252
19.84,219.034,10.997,99.861,-0.0038638
19.89,219.534,10.997,99.859,-0.0039963
19.94,220.034,10.997,99.857,-0.0042241
19.99,220.534,10.997,99.855,-0.0037197
20.04,221.034,10.996,99.853,-0.0040389
20.09,221.534,10.996,99.851,-0.0039450
20.14,222.034,10.996,99.849,-0.0041236
20.19,222.534,10.996,99.847,-0.0042942
20.24,223.034,10.996,99.845,-0.0040117
20.29,223.535,10.995,99.843,-0.0040124
20.34,224.035,10.995,99.841,-0.0041040
20.39,224.535,10.995,99.839,-0.0039334
20.44,225.035,10.995,99.837,-0.0038980
20.49,225.535,10.994,99.835,-0.0042719
20.54,226.035,10.994,99.833,-0.0042778
20.59,226.535,10.994,99.831,-0.0041851
20.64,227.035,10.994,99.829,-0.0036281
20.69,227.535,10.994,99.827,-0.0036711
20.74,228.035,10.993,99.825,-0.0034840
20.79,228.535,10.993,99.823,-0.0038507
20.84,229.036,10.993,99.821,-0.0036660
20.89,229.536,10.993,99.819,-0.0034366
20.94,230.036,10.992,99.817,-0.0035266
20.99,230.536,10.992,99.815,-0.0037111
21.04,231.036,10.992,99.813,-0.0045347
21.09,231.536,10.992,99.811,-0.0042186
21.14,232.036,10.992,99.809,-0.0038881
21.19,232.536,10.991,99.807,-0.0038884
21.24,233.036,10.991,99.805,-0.0043020
21.29,233.536,10.991,99.803,-0.0040356
21.34,234.036,10.991,99.801,-0.0043566
21.39,234.537,10.99,99.799,-0.0043072
21.44,235.037,10.99,99.797,-0.0040311
21.49,235.537,10.99,99.795,-0.0037122
21.54,236.037,10.99,99.793,-0.0041262
21.59,236.537,10.99,99.791,-0.0039450
21.64,237.037,10.989,99.789,-0.0037563
21.69,237.537,10.989,99.787,-0.0035671
21.74,238.037,10.989,99.785,-0.0040639
21.79,238.537,10.989,99.783,-0.0042009
21.84,239.037,10.988,99.78,-0.0041171
21.89,239.537,10.988,99.778,-0.0042125
21.94,240.038,10.988,99.776,-0.0043535
21.99,240.538,10.988,99.774,-0.0046802
22.04,241.038,10.987,99.772,-0.0046755
22.09,241.538,10.987,99.77,-0.0043087
22.14,242.038,10.987,99.767,-0.0044954
22.19,242.538,10.987,99.765,-0.0043538
22.24,243.038,10.987,99.763,-0.0041648
22.29,243.538,10.986,99.761,-0.0039853
22.34,244.038,10.986,99.759,-0.0040282
22.39,244.538,10.986,99.757,-0.0040311
22.44,245.038,10.986,99.755,-0.0035315
22.49,245.538,10.985,99.753,-0.0041209
22.54,246.039,10.985,99.751,-0.0039367
22.59,246.539,10.985,99.749,-0.0040770
22.64,247.039,10.985,99.747,-0.0043466
22.69,247.539,10.984,99.745,-0.0046263
22.74,248.039,10.984,99.742,-0.0044438
22.79,248.539,10.984,99.74,-0.0046789
22.85,249.039,10.984,99.738,-0.0042221
22.9,249.539,10.984,99.736,-0.0041724
22.95,250.039,10.983,99.734,-0.0041724
23,250.539,10.983,99.732,-0.0043119
23.05,251.039,10.983,99.73,-0.0043594
23.1,251.54,10.983,99.728,-0.0043068
23.15,252.04,10.982,99.726,-0.0042086
23.2,252.54,10.982,99.724,-0.0041636
23.25,253.04,10.982,99.721,-0.0042551
23.3,253.54,10.982,99.719,-0.0038004
23.35,254.04,10.981,99.717,-0.0042582
23.4,254.54,10.981,99.715,-0.0038004
23.45,255.04,10.981,99.713,-0.0039348
23.5,255.54,10.981,99.711,-0.0044365
23.55,256.04,10.98,99.708,-0.0045305
23.6,256.54,10.98,99.706,-0.0045330
23.65,257.041,10.98,99.704,-0.0042598
23.7,257.541,10.98,99.702,-0.0046305
23.75,258.041,10.98,99.7,-0.0047248
23.8,258.541,10.979,99.697,-0.0046365
23.85,259.041,10.979,99.695,-0.0045396
23.9,259.541,10.979,99.693,-0.0045355
23.95,260.041,10.979,99.691,-0.0039835
24,260.541,10.978,99.689,-0.0042139
24.05,261.041,10.978,99.687,-0.0040367
24.1,261.541,10.978,99.684,-0.0045847
24.15,262.041,10.978,99.682,-0.0042630
24.2,262.542,10.977,99.68,-0.0044463
24.25,263.042,10.977,99.678,-0.0040308
24.3,263.542,10.977,99.676,-0.0042125
24.35,264.042,10.977,99.673,-0.0043956
24.4,264.542,10.976,99.671,-0.0043916
24.45,265.042,10.976,99.669,-0.0044308
24.5,265.542,10.976,99.667,-0.0047549
24.55,266.042,10.976,99.665,-0.0044398
24.6,266.542,10.975,99.662,-0.0047662
24.65,267.042,10.975,99.66,-0.0043618
24.7,267.542,10.975,99.658,-0.0044995
24.75,268.043,10.975,99.656,-0.0043563
24.8,268.543,10.974,99.653,-0.0045813
24.85,269.043,10.974,99.651,-0.0039835
24.9,269.543,10.974,99.649,-0.0042599
24.95,270.043,10.974,99.647,-0.0041667
25,270.543,10.973,99.645,-0.0044389
25.05,271.043,10.973,99.642,-0.0047601
25.1,271.543,10.973,99.64,-0.0048517
25.15,272.043,10.973,99.638,-0.0040766
25.2,272.543,10.972,99.635,-0.0043980
25.25,273.043,10.972,99.633,-0.0039857
25.3,273.543,10.972,99.631,-0.0047637
25.35,274.044,10.972,99.629,-0.0044847
25.4,274.544,10.971,99.627,-0.0047161
25.45,275.044,10.971,99.624,-0.0045330
25.5,275.544,10.971,99.622,-0.0048103
25.55,276.044,10.971,99.62,-0.0047663
25.6,276.544,10.97,99.618,-0.0049083
25.65,277.044,10.97,99.615,-0.0045455
25.7,277.544,10.97,99.613,-0.0045455
25.75,278.044,10.97,99.611,-0.0044037
25.8,278.544,10.969,99.608,-0.0041232
25.85,279.044,10.969,99.606,-0.0046686
25.9,279.545,10.969,99.604,-0.0041591
25.95,280.045,10.969,99.602,-0.0044267
26,280.545,10.968,99.599,-0.0046533
26.05,281.045,10.968,99.597,-0.0048015
26.1,281.545,10.968,99.594,-0.0047213
26.15,282.045,10.968,99.592,-0.0050955
26.2,282.545,10.967,99.59,-0.0044683
26.25,283.045,10.967,99.588,-0.0036132
26.3,283.545,10.967,99.586,-0.0047291
26.35,284.045,10.967,99.584,-0.0039062
26.4,284.545,10.967,99.582,-0.0054178
26.45,285.046,10.966,99.579,-0.0056484
26.5,285.546,10.966,99.576,-0.0043158
26.55,286.046,10.966,99.574,-0.0043080
26.6,286.546,10.965,99.571,-0.0047091
26.65,287.046,10.965,99.569,-0.0048008
26.7,287.546,10.965,99.567,-0.0049514
26.75,288.046,10.965,99.564,-0.0052294
26.8,288.546,10.964,99.562,-0.0048535
26.85,289.046,10.964,99.559,-0.0048535
26.9,289.546,10.964,99.557,-0.0048579
26.95,290.046,10.964,99.555,-0.0047222
27,290.547,10.963,99.553,-0.0043119
27.05,291.047,10.963,99.55,-0.0044979
27.1,291.547,10.963,99.548,-0.0048103
27.15,292.047,10.963,99.545,-0.0047636
27.2,292.547,10.962,99.543,-0.0043159
27.25,293.047,10.962,99.541,-0.0044012
27.3,293.547,10.962,99.538,-0.0049817
27.35,294.047,10.962,99.536,-0.0050210
27.4,294.547,10.961,99.534,-0.0049582
27.45,295.047,10.961,99.531,-0.0044708
27.5,295.547,10.961,99.529,-0.0045746
27.55,296.048,10.96,99.527,-0.0046305
27.6,296.548,10.96,99.524,-0.0046747
27.65,297.048,10.96,99.522,-0.0051433
27.7,297.548,10.96,99.519,-0.0049083
27.75,298.048,10.959,99.517,-0.0051425
27.8,298.548,10.959,99.514,-0.0047706
27.85,299.048,10.959,99.512,-0.0048139
27.9,299.548,10.959,99.51,-0.0052294
27.95,300.048,10.958,99.507,-0.0050394
28,300.548,10.958,99.505,-0.0048033
28.05,301.048,10.958,99.502,-0.0047601
28.1,301.548,10.958,99.5,-0.0047558
28.15,302.049,10.957,99.497,-0.0048490
28.2,302.549,10.957,99.495,-0.0047602
28.25,303.049,10.957,99.493,-0.0048015
28.3,303.549,10.956,99.49,-0.0047057
28.35,304.049,10.956,99.488,-0.0053065
28.4,304.549,10.956,99.485,-0.0050917
28.45,305.049,10.956,99.483,-0.0048227
28.5,305.549,10.955,99.48,-0.0049541
28.55,306.049,10.955,99.478,-0.0047101
28.6,306.549,10.955,99.475,-0.0051712
28.65,307.049,10.955,99.473,-0.0046703
28.7,307.55,10.954,99.47,-0.0047506
28.75,308.05,10.954,99.468,-0.0046287
28.8,308.55,10.954,99.465,-0.0048121
28.85,309.05,10.953,99.463,-0.0053621
28.9,309.55,10.953,99.46,-0.0049936
28.95,310.05,10.953,99.458,-0.0048535
29,310.55,10.953,99.455,-0.0051769
29.05,311.05,10.952,99.453,-0.0049011
29.1,311.55,10.952,99.45,-0.0054069
29.15,312.05,10.952,99.448,-0.0052694
29.2,312.55,10.952,99.445,-0.0050320
29.25,313.051,10.951,99.443,-0.0047498
29.3,313.551,10.951,99.44,-0.0044814
29.35,314.051,10.951,99.438,-0.0048597
29.4,314.551,10.95,99.435,-0.0053768
29.45,315.051,10.95,99.433,-0.0050486
29.5,315.551,10.95,99.43,-0.0046789
29.55,316.051,10.95,99.428,-0.0051376
29.6,316.551,10.949,99.425,-0.0054158
29.65,317.051,10.949,99.423,-0.0050871
29.7,317.551,10.949,99.42,-0.0052656
29.75,318.051,10.948,99.418,-0.0048508
29.8,318.552,10.948,99.415,-0.0053999
29.85,319.052,10.948,99.413,-0.0052198
29.9,319.552,10.948,99.41,-0.0046703
29.95,320.052,10.947,99.408,-0.0046746
30,320.552,10.947,99.405,-0.0050871
30.05,321.052,10.947,99.402,-0.0053960
30.1,321.552,10.946,99.4,-0.0048464
30.15,322.052,10.946,99.397,-0.0053046
30.2,322.552,10.946,99.394,-0.0052607
30.25,323.052,10.946,99.392,-0.0051701
30.3,323.552,10.945,99.389,-0.0052588
30.35,324.053,10.945,99.387,-0.0054458
30.4,324.553,10.945,99.384,-0.0052638
30.45,325.053,10.944,99.382,-0.0048553
30.5,325.553,10.944,99.379,-0.0048579
30.55,326.053,10.944,99.376,-0.0048606
30.6,326.553,10.944,99.374,-0.0050899
30.65,327.053,10.943,99.371,-0.0048121
30.7,327.553,10.943,99.369,-0.0053571
30.75,328.053,10.943,99.366,-0.0054945
30.8,328.553,10.942,99.363,-0.0053191
30.85,329.053,10.942,99.361,-0.0051424
30.9,329.553,10.942,99.358,-0.0056474
30.95,330.054,10.942,99.355,-0.0053240
31,330.554,10.941,99.353,-0.0049936
31.05,331.054,10.941,99.35,-0.0056144
31.1,331.554,10.941,99.348,-0.0057025
31.15,332.054,10.94,99.345,-0.0051030
31.2,332.554,10.94,99.342,-0.0055789
31.25,333.054,10.94,99.339,-0.0050824
31.3,333.554,10.94,99.337,-0.0052782
31.35,334.054,10.939,99.334,-0.0051376
31.4,334.554,10.939,99.331,-0.0053571
31.45,335.054,10.939,99.328,-0.0054895
31.5,335.555,10.938,99.326,-0.0053064
31.55,336.055,10.938,99.323,-0.0056724
31.6,336.555,10.938,99.32,-0.0055403
31.65,337.055,10.937,99.317,-0.0056912
31.7,337.555,10.937,99.315,-0.0058791
31.75,338.055,10.937,99.312,-0.0056495
31.8,338.555,10.936,99.309,-0.0054029
31.85,339.055,10.936,99.306,-0.0059383
31.9,339.555,10.936,99.303,-0.0054865
31.95,340.055,10.936,99.3,-0.0058533
32,340.555,10.935,99.297,-0.0061389
32.05,341.056,10.935,99.295,-0.0058447
32.1,341.556,10.935,99.292,-0.0056165
32.15,342.056,10.934,99.289,-0.0063013
32.2,342.556,10.934,99.286,-0.0059491
32.25,343.056,10.934,99.283,-0.0063245
32.3,343.556,10.933,99.28,-0.0061502
32.35,344.056,10.933,99.277,-0.0055911
32.4,344.556,10.933,99.274,-0.0057255
32.45,345.056,10.932,99.271,-0.0059469
32.5,345.556,10.932,99.268,-0.0064595
32.55,346.056,10.932,99.265,-0.0060517
32.6,346.557,10.931,99.261,-0.0063645
32.65,347.057,10.931,99.258,-0.0060931
32.7,347.557,10.931,99.255,-0.0063245
32.75,348.057,10.93,99.252,-0.0073989
32.8,348.557,10.93,99.249,-0.0062476
32.85,349.057,10.93,99.245,-0.0069508
32.9,349.557,10.929,99.242,-0.0077141
32.95,350.057,10.929,99.239,-0.0062672
33,350.557,10.928,99.235,-0.0064911
33.05,351.057,10.928,99.232,-0.0068074
33.1,351.557,10.928,99.229,-0.0069165
33.15,352.058,10.927,99.225,-0.0069495
33.2,352.558,10.927,99.222,-0.0068594
33.25,353.058,10.927,99.218,-0.0067667
33.3,353.558,10.926,99.215,-0.0071533
33.35,354.058,10.926,99.211,-0.0069266
33.4,354.558,10.925,99.208,-0.0071455
33.45,355.058,10.925,99.204,-0.0073260
33.5,355.558,10.925,99.2,-0.0070616
33.55,356.058,10.924,99.197,-0.0076994
33.6,356.558,10.924,99.193,-0.0076438
33.65,357.058,10.923,99.189,-0.0072278
33.7,357.558,10.923,99.185,-0.0076535
33.75,358.059,10.922,99.182,-0.0076147
33.8,358.559,10.922,99.178,-0.0081163
33.85,359.059,10.922,99.174,-0.0080349
33.9,359.559,10.921,99.17,-0.0079416
33.95,360.059,10.921,99.166,-0.0079096
34,360.559,10.92,99.162,-0.0082923
34.05,361.059,10.92,99.158,-0.0079972
34.1,361.559,10.919,99.154,-0.0080674
34.15,362.059,10.919,99.15,-0.0086459
34.2,362.559,10.919,99.146,-0.0085843
34.25,363.059,10.918,99.141,-0.0083593
34.3,363.56,10.918,99.137,-0.0080320
34.35,364.06,10.917,99.133,-0.0084296
34.4,364.56,10.917,99.128,-0.0092033
34.45,365.06,10.916,99.124,-0.0092813
34.5,365.56,10.916,99.119,-0.0095238
34.55,366.06,10.915,99.115,-0.0091201
34.6,366.56,10.915,99.11,-0.0094728
34.65,367.06,10.914,99.105,-0.0092238
34.7,367.56,10.914,99.1,-0.0099177
34.75,368.06,10.913,99.095,-0.0103537
34.8,368.56,10.912,99.091,-0.0106520
34.85,369.061,10.912,99.086,-0.0101140
34.9,369.561,10.911,99.081,-0.0105925
34.96,370.061,10.911,99.075,-0.0105905
35.01,370.561,10.91,99.07,-0.0109810
35.05,371.061,10.91,99.065,-0.0110086
35.1,371.561,10.909,99.059,-0.0112596
35.15,372.061,10.908,99.054,-0.0113074
35.2,372.561,10.908,99.048,-0.0114969
35.25,373.061,10.907,99.042,-0.0113844
35.3,373.561,10.906,99.036,-0.0114114
35.35,374.061,10.906,99.03,-0.0117916
35.4,374.562,10.905,99.024,-0.0123558
35.45,375.062,10.904,99.018,-0.0121270
35.5,375.562,10.904,99.012,-0.0122508
35.55,376.062,10.903,99.005,-0.0127971
35.6,376.562,10.902,98.999,-0.0128474
35.65,377.062,10.902,98.992,-0.0139450
35.7,377.562,10.901,98.985,-0.0134330
35.75,378.062,10.9,98.979,-0.0138736
35.8,378.562,10.899,98.972,-0.0143641
35.85,379.062,10.899,98.965,-0.0144503
35.9,379.562,10.898,98.957,-0.0148216
35.95,380.063,10.897,98.95,-0.0148542
36,380.563,10.896,98.942,-0.0155505
36.05,381.063,10.895,98.935,-0.0156593
36.1,381.563,10.894,98.927,-0.0157823
36.15,382.063,10.894,98.919,-0.0163312
36.2,382.563,10.893,98.911,-0.0169352
36.25,383.063,10.892,98.902,-0.0172556
36.3,383.563,10.891,98.894,-0.0177360
36.35,384.063,10.89,98.885,-0.0178277
36.4,384.563,10.889,98.876,-0.0184813
36.45,385.063,10.888,98.866,-0.0189214
36.5,385.563,10.887,98.857,-0.0192765
36.55,386.064,10.886,98.847,-0.0193011
36.6,386.564,10.885,98.837,-0.0200256
36.65,387.064,10.883,98.827,-0.0205210
36.7,387.564,10.882,98.817,-0.0208676
36.75,388.064,10.881,98.806,-0.0216853
36.8,388.564,10.88,98.795,-0.0222426
36.85,389.064,10.879,98.784,-0.0226398
36.9,389.564,10.877,98.772,-0.0235935
36.95,390.064,10.876,98.76,-0.0242807
37,390.564,10.875,98.748,-0.0247479
37.05,391.064,10.873,98.735,-0.0253339
37.1,391.565,10.872,98.723,-0.0259835
37.15,392.065,10.87,98.709,-0.0268773
37.2,392.565,10.869,98.696,-0.0278797
37.25,393.065,10.867,98.682,-0.0285321
37.3,393.565,10.866,98.667,-0.0294064
37.35,394.065,10.864,98.652,-0.0298358
37.4,394.565,10.863,98.637,-0.0312501
37.45,395.065,10.861,98.621,-0.0319226
37.5,395.565,10.859,98.605,-0.0328454
37.55,396.065,10.857,98.589,-0.0336239
37.6,396.565,10.855,98.572,-0.0350321
37.65,397.066,10.853,98.554,-0.0353077
37.7,397.566,10.851,98.536,-0.0366514
37.75,398.066,10.849,98.518,-0.0374771
37.8,398.566,10.847,98.499,-0.0385109
37.85,399.066,10.845,98.479,-0.0394375
37.9,399.566,10.843,98.459,-0.0408425
37.96,400.066,10.841,98.438,-0.0423605
38,400.566,10.838,98.417,-0.0431082
38.05,401.066,10.836,98.395,-0.0443976
38.1,401.566,10.833,98.373,-0.0456999
38.15,402.066,10.831,98.35,-0.0475754
38.2,402.567,10.828,98.326,-0.0483813
38.25,403.067,10.825,98.301,-0.0501192
38.3,403.567,10.823,98.275,-0.0515596
38.36,404.067,10.82,98.248,-0.0532276
38.41,404.567,10.817,98.221,-0.0543379
38.45,405.067,10.814,98.194,-0.0564325
38.5,405.567,10.811,98.166,-0.0583395
38.55,406.067,10.807,98.136,-0.0602658
38.6,406.567,10.804,98.106,-0.0618820
38.65,407.067,10.801,98.074,-0.0639503
38.7,407.567,10.797,98.042,-0.0661792
38.75,408.068,10.793,98.008,-0.0682983
38.8,408.568,10.789,97.973,-0.0707418
38.85,409.068,10.785,97.938,-0.0729358
38.9,409.568,10.781,97.901,-0.0753217
38.95,410.068,10.777,97.862,-0.0778094
39.01,410.568,10.773,97.822,-0.0799578
39.06,411.068,10.768,97.781,-0.0827239
39.1,411.568,10.764,97.74,-0.0857928
39.15,412.068,10.759,97.697,-0.0876945
39.2,412.568,10.754,97.652,-0.0909464
39.25,413.068,10.749,97.606,-0.0938245
39.3,413.568,10.744,97.558,-0.0990367
39.35,414.069,10.738,97.507,-0.1051210
39.4,414.569,10.732,97.451,-0.1125450
39.45,415.069,10.725,97.392,-0.1185390
39.5,415.569,10.719,97.33,-0.1284940
39.55,416.069,10.711,97.264,-0.1359140
39.6,416.569,10.704,97.195,-0.1362310
39.65,417.069,10.696,97.123,-0.1416670
39.7,417.569,10.688,97.049,-0.1460020
39.75,418.069,10.679,96.972,-0.1540640
39.8,418.569,10.67,96.893,-0.1511880
39.85,419.069,10.662,96.812,-0.1591990
39.9,419.57,10.652,96.73,-0.1702200
39.95,420.07,10.643,96.645,-0.1738100
40,420.57,10.634,96.558,-0.1815890
40.05,421.07,10.624,96.468,-0.1852010
40.1,421.57,10.614,96.378,-0.1864370
40.16,422.07,10.603,96.28,-0.1910900
40.21,422.57,10.592,96.183,-0.1943480
40.26,423.07,10.581,96.083,-0.2012530
40.3,423.57,10.57,95.984,-0.2061700
40.35,424.07,10.559,95.879,-0.2204200
40.4,424.57,10.547,95.771,-0.2208120
40.45,425.071,10.535,95.661,-0.2245120
40.5,425.571,10.522,95.548,-0.2338210
40.55,426.071,10.51,95.432,-0.2372880
40.6,426.571,10.496,95.313,-0.2456040
40.65,427.071,10.483,95.189,-0.2551320
40.7,427.571,10.469,95.062,-0.2601650
40.75,428.071,10.454,94.931,-0.2655590
40.8,428.571,10.44,94.797,-0.2749230
40.85,429.071,10.424,94.656,-0.2837540
40.9,429.571,10.408,94.512,-0.2871240
40.95,430.071,10.392,94.361,-0.3007870
41,430.572,10.374,94.204,-0.3166730
41.05,431.072,10.356,94.041,-0.3229690
41.1,431.572,10.338,93.874,-0.3432300
41.15,432.072,10.319,93.699,-0.3447880
41.2,432.572,10.299,93.517,-0.3658900
41.25,433.072,10.278,93.331,-0.3831710
41.3,433.572,10.257,93.137,-0.3914840
41.35,434.072,10.235,92.937,-0.4088300
41.4,434.572,10.212,92.73,-0.4104920
41.45,435.072,10.188,92.517,-0.4351980
41.5,435.572,10.164,92.296,-0.4487640
41.55,436.073,10.139,92.066,-0.4726440
41.6,436.573,10.113,91.828,-0.4898010
41.65,437.073,10.086,91.582,-0.4940030
41.7,437.573,10.058,91.327,-0.5246950
41.75,438.073,10.028,91.063,-0.5377160
41.8,438.573,9.998,90.787,-0.5679810
41.85,439.073,9.966,90.496,-0.6026940
41.9,439.573,9.933,90.194,-0.6184210
41.95,440.073,9.898,89.877,-0.6553880
42,440.573,9.861,89.542,-0.7034760
42.05,441.073,9.822,89.19,-0.7303690
42.1,441.573,9.782,88.827,-0.7615840
42.15,442.074,9.741,88.45,-0.7756030
42.2,442.574,9.697,88.057,-0.7887120
42.25,443.074,9.653,87.654,-0.8511120
42.3,443.574,9.606,87.228,-0.8915620
42.35,444.074,9.557,86.784,-0.9099450
42.4,444.574,9.507,86.328,-0.9144050
42.45,445.074,9.454,85.851,-0.9639040
42.5,445.574,9.4,85.353,-1.01512
42.55,446.074,9.343,84.842,-1.01367
42.6,446.574,9.285,84.315,-1.03942
42.65,447.074,9.224,83.758,-1.17777
42.7,447.575,9.157,83.151,-1.25128
42.75,448.075,9.09,82.545,-1.2441
42.8,448.575,9.023,81.934,-1.22191
42.85,449.075,8.952,81.285,-1.19799
42.9,449.575,8.88,80.63,-1.32145
42.95,450.075,8.802,79.924,-1.45609
43,450.575,8.722,79.202,-1.44691
43.05,451.075,8.64,78.453,-1.5409
43.1,451.575,8.552,77.657,-1.59005
43.16,452.075,8.461,76.828,-1.60211
43.21,452.575,8.369,75.997,-1.70553
43.26,453.076,8.273,75.121,-1.75091
43.31,453.576,8.177,74.252,-1.81626
43.36,454.076,8.073,73.304,-1.96815
43.41,454.576,7.966,72.335,-1.97005
43.46,455.076,7.858,71.354,-1.93036
43.51,455.576,7.746,70.342,-2.19877
43.56,456.076,7.625,69.241,-2.2723
43.61,456.576,7.503,68.135,-2.1722
43.66,457.076,7.382,67.033,-2.39647
43.71,457.576,7.25,65.835,-2.50849
43.76,458.076,7.112,64.581,-2.54662
43.81,458.577,6.978,63.363,-2.41057
43.86,459.077,6.837,62.08,-2.72975
43.91,459.577,6.686,60.713,-2.77449
43.96,460.077,6.535,59.346,-2.71406
44.01,460.577,6.383,57.959,-2.88342
44.06,461.077,6.221,56.492,-2.91222
44.11,461.577,6.056,54.991,-3.00513
44.16,462.077,5.887,53.458,-3.09129
44.21,462.577,5.713,51.875,-3.22058
44.26,463.077,5.533,50.245,-3.23779
44.31,463.577,5.352,48.602,-3.17717
44.36,464.078,5.177,47.012,-3.2175
44.41,464.578,4.989,45.3,-3.51486
44.46,465.078,4.794,43.535,-3.60187
44.51,465.578,4.595,41.721,-3.72309
44.56,466.078,4.392,39.881,-3.71576
44.61,466.578,4.188,38.033,-3.63336
44.66,467.078,3.992,36.253,-3.54056
44.71,467.578,3.79,34.416,-3.77046
44.76,468.078,3.587,32.567,-3.73134
44.81,468.578,3.381,30.705,-3.68227
44.86,469.078,3.184,28.911,-3.59024
44.91,469.578,2.981,27.071,-3.73059
44.96,470.079,2.779,25.233,-3.68726
45.01,470.579,2.576,23.387,-3.63438
45.06,471.079,2.378,21.596,-3.53506
45.11,471.579,2.209,20.06,-3.08916
45.15,472.079,2.041,18.536,-3.14894
45.2,472.579,1.868,16.963,-3.0671
45.25,473.079,1.699,15.427,-2.98599
45.3,473.579,1.538,13.965,-2.81766
45.35,474.079,1.385,12.575,-2.66192
45.4,474.579,1.241,11.269,-2.56059
45.45,475.079,1.112,10.1,-2.26132
45.5,475.58,0.9950000,9.032,-2.16802
45.55,476.08,0.8810000,7.999,-1.98887
45.6,476.58,0.7770000,7.06,-1.77022
45.65,477.08,0.6840000,6.214,-1.56757
45.7,477.58,0.6020000,5.465,-1.40002
45.75,478.08,0.5290000,4.806,-1.21223
45.8,478.58,0.4670000,4.238,-1.01929
45.85,479.08,0.4140000,3.755,-0.8570740
45.9,479.58,0.3710000,3.365,-0.7292390
45.95,480.08,0.3340000,3.033,-0.6097780
46,480.58,0.3050000,2.767,-0.4737190
46.05,481.081,0.2820000,2.562,-0.3575210
46.1,481.581,0.2650000,2.409,-0.2567300
46.15,482.081,0.2530000,2.301,-0.1743240
46.2,482.581,0.2460000,2.232,-0.1074870
46.25,483.081,0.2410000,2.191,-0.0558556
46.3,483.581,0.2380000,2.165,-0.0505094
46.35,484.081,0.2360000,2.14,-0.0489019
46.4,484.581,0.2330000,2.117,-0.0422684
46.45,485.081,0.2310000,2.097,-0.0354379
46.5,485.581,0.2290000,2.082,-0.0290055
46.55,486.081,0.2280000,2.069,-0.0232879
46.6,486.582,0.2270000,2.058,-0.0187454
46.65,487.082,0.2260000,2.05,-0.0147210
46.7,487.582,0.2250000,2.043,-0.0116526
46.75,488.082,0.2240000,2.038,-0.0092058
46.8,488.582,0.2240000,2.034,-0.0071357
46.85,489.082,0.2240000,2.031,-0.0057899
46.9,489.582,0.2230000,2.028,-0.0043998
46.95,490.082,0.2230000,2.026,-0.0041915
47.01,490.582,0.2230000,2.025,-0.0026353
47.06,491.082,0.2230000,2.023,-0.0025755
47.11,491.582,0.2230000,2.022,-0.0016985
47.16,492.083,0.2230000,2.022,-0.0014246
47.21,492.583,0.2230000,2.021,-0.0009907
47.26,493.083,0.2230000,2.02,-0.0010051
47.31,493.583,0.2220000,2.02,-0.0006954
47.36,494.083,0.2220000,2.02,-0.0002953
47.41,494.583,0.2220000,2.02,-0.0002081
47.46,495.083,0.2220000,2.019,-0.0005376
47.51,495.583,0.2220000,2.019,-0.0001702
47.56,496.083,0.2220000,2.019,-0.0002572
47.61,496.583,0.2220000,2.019,-0.0000614
47.66,497.083,0.2220000,2.019,-0.0001828
47.71,497.583,0.2220000,2.019,-0.0000929
47.76,498.084,0.2220000,2.019,-0.0002371
47.81,498.584,0.2220000,2.018,-0.0003947
47.86,499.084,0.2220000,2.018,-0.0001575
47.91,499.584,0.2220000,2.019,-0.0000315
47.96,500.084,0.2220000,2.018,-0.0002376
48.01,500.584,0.2220000,2.018,-0.0002685
48.06,501.084,0.2220000,2.018,0.0000271
48.11,501.584,0.2220000,2.018,0.0001903
48.15,502.084,0.2220000,2.018,-0.0001005
48.2,502.584,0.2220000,2.018,-0.0000836
48.25,503.084,0.2220000,2.018,-0.0001744
48.3,503.585,0.2220000,2.018,0.0000341
48.35,504.085,0.2220000,2.018,-0.0000384
48.4,504.585,0.2220000,2.018,-0.0000271
48.45,505.085,0.2220000,2.018,0.0000342
48.5,505.585,0.2220000,2.018,0.0002956
48.55,506.085,0.2220000,2.018,-0.0000972
48.6,506.585,0.2220000,2.018,0.0000788
48.65,507.085,0.2220000,2.018,0.0000759
48.7,507.585,0.2220000,2.018,-0.0003422
48.75,508.085,0.2220000,2.018,0.0005080
48.8,508.585,0.2220000,2.018,-0.0000201
48.85,509.086,0.2220000,2.018,-0.0001990
48.9,509.586,0.2220000,2.018,0.0001016
48.95,510.086,0.2220000,2.018,0.0000243
49,510.586,0.2220000,2.017,-0.0003837
49.05,511.086,0.2220000,2.017,-0.0000572
49.1,511.586,0.2220000,2.017,-0.0000172
49.15,512.086,0.2220000,2.017,-0.0004956
49.2,512.586,0.2220000,2.017,-0.0004125
49.25,513.086,0.2220000,2.017,-0.0001218
49.3,513.586,0.2220000,2.017,0.0001318
49.35,514.086,0.2220000,2.017,-0.0001601
49.4,514.587,0.2220000,2.017,0.0000327
49.45,515.087,0.2220000,2.017,-0.0002299
49.5,515.587,0.2220000,2.017,-0.0001847
49.55,516.087,0.2220000,2.017,0.0001757
49.6,516.587,0.2220000,2.017,-0.0001046
49.65,517.087,0.2220000,2.017,-0.0003822
49.7,517.587,0.2220000,2.016,-0.0004427
49.75,518.087,0.2220000,2.016,-0.0003025
49.8,518.587,0.2220000,2.016,-0.0001578
49.85,519.087,0.2220000,2.016,-0.0004341
49.9,519.587,0.2220000,2.016,-0.0002778
49.95,520.088,0.2220000,2.016,-0.0000587
50,520.588,0.2220000,2.016,-0.0001157
50.05,521.088,0.2220000,2.016,0.0000371
50.1,521.588,0.2220000,2.016,0.0000543
50.15,522.088,0.2220000,2.016,-0.0000565
50.2,522.588,0.2220000,2.016,0.0000242
50.25,523.088,0.2220000,2.016,0.0004225
50.3,523.588,0.2220000,2.016,0.0000928
50.35,524.088,0.2220000,2.016,-0.0000243
50.4,524.588,0.2220000,2.016,-0.0003005
50.45,525.088,0.2220000,2.016,0.0002361
50.5,525.588,0.2220000,2.016,0.0001488
50.55,526.089,0.2220000,2.016,-0.0000186
50.6,526.589,0.2220000,2.016,-0.0006328
50.65,527.089,0.2220000,2.016,0.0000114
50.7,527.589,0.2220000,2.016,-0.0005185
50.75,528.089,0.2220000,2.015,-0.0003870
50.8,528.589,0.2220000,2.015,-0.0002087
50.85,529.089,0.2220000,2.015,0.0000458
50.9,529.589,0.2220000,2.015,-0.0002189
50.95,530.089,0.2220000,2.015,-0.0001960
51,530.589,0.2220000,2.015,-0.0007132
51.05,531.089,0.2220000,2.015,-0.0000429
51.1,531.59,0.2220000,2.015,-0.0001326
51.15,532.09,0.2220000,2.015,0.0000086
51.2,532.59,0.2220000,2.014,-0.0004350
51.25,533.09,0.2220000,2.014,-0.0001375
51.3,533.59,0.2220000,2.014,-0.0003423
51.35,534.09,0.2220000,2.014,-0.0010639
51.4,534.59,0.2220000,2.013,-0.0006570
51.45,535.09,0.2220000,2.013,-0.0003409
51.5,535.59,0.2220000,2.013,-0.0007118
51.55,536.09,0.2220000,2.013,-0.0003756
51.6,536.59,0.2220000,2.013,-0.0004532
51.65,537.091,0.2220000,2.012,-0.0004750
51.7,537.591,0.2220000,2.012,-0.0003645
51.75,538.091,0.2220000,2.012,-0.0003813
51.8,538.591,0.2220000,2.012,-0.0002514
51.85,539.091,0.2220000,2.012,-0.0008355
51.9,539.591,0.2210000,2.011,-0.0004965
51.95,540.091,0.2210000,2.011,-0.0005445
52,540.591,0.2210000,2.011,-0.0008085
52.05,541.091,0.2210000,2.01,-0.0009993
52.1,541.591,0.2210000,2.01,-0.0009506
52.15,542.091,0.2210000,2.009,-0.0008006
52.2,542.592,0.2210000,2.009,-0.0010478
52.25,543.092,0.2210000,2.008,-0.0009484
52.3,543.592,0.2210000,2.008,-0.0012470
52.35,544.092,0.2210000,2.007,-0.0010205
52.4,544.592,0.2210000,2.007,-0.0008785
52.45,545.092,0.2210000,2.006,-0.0008056
52.5,545.592,0.2210000,2.006,-0.0013994
52.55,546.092,0.2210000,2.005,-0.0011052
52.6,546.592,0.2210000,2.005,-0.0011508
52.65,547.092,0.2210000,2.004,-0.0014657
52.7,547.592,0.2210000,2.003,-0.0012535
52.75,548.093,0.2210000,2.003,-0.0018839
52.8,548.593,0.2200000,2.002,-0.0016151
52.85,549.093,0.2200000,2.001,-0.0017438
52.9,549.593,0.2200000,2,-0.0017013
52.95,550.093,0.2200000,2,-0.0017897
53,550.593,0.2200000,1.999,-0.0011604
53.05,551.093,0.2200000,1.998,-0.0016627
53.1,551.593,0.2200000,1.997,-0.0018602
53.15,552.093,0.2200000,1.996,-0.0021116
53.2,552.593,0.2200000,1.995,-0.0018004
53.25,553.093,0.2200000,1.994,-0.0021002
53.3,553.593,0.2190000,1.993,-0.0023751
53.35,554.094,0.2190000,1.992,-0.0024002
53.4,554.594,0.2190000,1.991,-0.0022393
53.45,555.094,0.2190000,1.99,-0.0025301
53.5,555.594,0.2190000,1.988,-0.0021516
53.55,556.094,0.2190000,1.987,-0.0023480
53.6,556.594,0.2190000,1.986,-0.0024171
53.65,557.094,0.2190000,1.985,-0.0024205
53.7,557.594,0.2180000,1.983,-0.0022432
53.75,558.094,0.2180000,1.982,-0.0027537
53.8,558.594,0.2180000,1.981,-0.0026727
53.85,559.094,0.2180000,1.979,-0.0031253
53.9,559.595,0.2180000,1.978,-0.0030785
53.95,560.095,0.2180000,1.976,-0.0034505
54,560.595,0.2170000,1.975,-0.0028625
54.05,561.095,0.2170000,1.973,-0.0037233
54.1,561.595,0.2170000,1.972,-0.0032172
54.15,562.095,0.2170000,1.97,-0.0030378
54.2,562.595,0.2170000,1.968,-0.0031593
54.25,563.095,0.2170000,1.967,-0.0034917
54.3,563.595,0.2160000,1.965,-0.0037947
54.35,564.095,0.2160000,1.963,-0.0037819
54.4,564.595,0.2160000,1.961,-0.0038463
54.45,565.096,0.2160000,1.959,-0.0037255
54.5,565.596,0.2160000,1.957,-0.0039719
54.55,566.096,0.2150000,1.955,-0.0039432
54.6,566.596,0.2150000,1.954,-0.0042788
54.65,567.096,0.2150000,1.951,-0.0043018
54.7,567.596,0.2150000,1.949,-0.0039734
54.75,568.096,0.2140000,1.947,-0.0043079
54.8,568.596,0.2140000,1.945,-0.0041073
54.85,569.096,0.2140000,1.943,-0.0043828
54.9,569.596,0.2140000,1.941,-0.0044657
54.95,570.096,0.2130000,1.939,-0.0047491
55,570.597,0.2130000,1.936,-0.0047176
55.05,571.097,0.2130000,1.934,-0.0046362
55.1,571.597,0.2130000,1.932,-0.0050006
55.15,572.097,0.2120000,1.929,-0.0047299
55.2,572.597,0.2120000,1.927,-0.0041659
55.25,573.097,0.2120000,1.925,-0.0046095
55.3,573.597,0.2120000,1.922,-0.0049908
55.35,574.097,0.2110000,1.92,-0.0050974
55.4,574.597,0.2110000,1.917,-0.0049567
55.45,575.097,0.2110000,1.915,-0.0048810
55.5,575.597,0.2110000,1.912,-0.0054695
55.55,576.098,0.2100000,1.91,-0.0057007
55.6,576.598,0.2100000,1.907,-0.0054074
55.65,577.098,0.2100000,1.904,-0.0054577
55.7,577.598,0.2090000,1.901,-0.0056815
55.75,578.098,0.2090000,1.899,-0.0058537
55.8,578.598,0.2090000,1.896,-0.0061363
55.85,579.098,0.2080000,1.893,-0.0056840
55.9,579.598,0.2080000,1.89,-0.0055715
55.95,580.098,0.2080000,1.887,-0.0057606
56,580.598,0.2080000,1.884,-0.0054416
56.05,581.098,0.2070000,1.882,-0.0049306
56.1,581.598,0.2070000,1.879,-0.0052317
56.15,582.099,0.2070000,1.876,-0.0054266
56.2,582.599,0.2060000,1.874,-0.0053109
56.25,583.099,0.2060000,1.871,-0.0056061
56.3,583.599,0.2060000,1.868,-0.0050745
56.35,584.099,0.2050000,1.866,-0.0053214
56.4,584.599,0.2050000,1.863,-0.0050381
56.45,585.099,0.2050000,1.86,-0.0053328
56.5,585.599,0.2050000,1.858,-0.0052333
56.55,586.099,0.2040000,1.855,-0.0053178
56.6,586.599,0.2040000,1.853,-0.0051017
56.65,587.099,0.2040000,1.85,-0.0055117
56.7,587.6,0.2030000,1.848,-0.0048845
56.75,588.1,0.2030000,1.845,-0.0047022
56.8,588.6,0.2030000,1.843,-0.0043647
56.85,589.1,0.2030000,1.841,-0.0044588
56.9,589.6,0.2020000,1.839,-0.0043603
56.94,590,0.2020000,1.837,-0.0042090