File: R/rHDPE_App/app/www/Output/TGA/Condensed_Data/Resin3_0_.csv
1.05,30,14.826,100.03,-0.0008632
1.11,30.5001,14.826,100.031,0.0010096
1.16,31.0002,14.826,100.032,0.0040420
1.22,31.5003,14.826,100.033,0.0011441
1.28,32.0004,14.826,100.034,0.0005152
1.33,32.5004,14.826,100.034,0.0028138
1.39,33.0005,14.826,100.035,-0.0000000
1.44,33.5006,14.826,100.036,0.0026255
1.5,34.0007,14.827,100.036,0.0001506
1.55,34.5008,14.827,100.037,0.0015983
1.61,35.0009,14.827,100.037,0.0011932
1.66,35.501,14.827,100.038,0.0002973
1.72,36.0011,14.827,100.039,0.0020228
1.77,36.5012,14.827,100.039,0.0000491
1.82,37.0013,14.827,100.04,0.0011270
1.88,37.5013,14.827,100.041,0.0021007
1.93,38.0014,14.827,100.041,0.0002926
1.98,38.5015,14.827,100.042,0.0017038
2.04,39.0016,14.827,100.042,0.0017972
2.09,39.5017,14.828,100.043,0.0001455
2.14,40.0018,14.828,100.044,0.0010654
2.19,40.5019,14.828,100.044,0.0018387
2.25,41.002,14.828,100.045,0.0006766
2.3,41.5021,14.828,100.046,0.0009171
2.35,42.0021,14.828,100.046,0.0018800
2.41,42.5022,14.828,100.047,0.0010588
2.46,43.0023,14.828,100.047,0.0008165
2.51,43.5024,14.828,100.048,0.0011990
2.56,44.0025,14.828,100.049,0.0016280
2.61,44.5026,14.829,100.049,0.0018634
2.67,45.0027,14.829,100.05,0.0011449
2.72,45.5028,14.829,100.051,0.0010955
2.77,46.0029,14.829,100.051,0.0014742
2.82,46.5029,14.829,100.052,0.0012820
2.88,47.003,14.829,100.053,0.0010432
2.93,47.5031,14.829,100.053,0.0009943
2.98,48.0032,14.829,100.054,0.0010399
3.03,48.5033,14.829,100.054,0.0015103
3.08,49.0034,14.829,100.055,0.0016500
3.13,49.5035,14.829,100.056,0.0015071
3.19,50.0036,14.83,100.056,0.0007055
3.24,50.5037,14.83,100.057,0.0011747
3.29,51.0038,14.83,100.058,0.0011735
3.34,51.5038,14.83,100.058,0.0012196
3.39,52.0039,14.83,100.059,0.0010305
3.44,52.504,14.83,100.059,0.0007489
3.49,53.0041,14.83,100.06,0.0007014
3.54,53.5042,14.83,100.06,0.0014949
3.59,54.0043,14.83,100.061,0.0012604
3.64,54.5044,14.83,100.062,0.0015385
3.7,55.0045,14.83,100.062,0.0011183
3.75,55.5046,14.831,100.063,0.0009776
3.8,56.0046,14.831,100.063,0.0006980
3.85,56.5047,14.831,100.064,0.0009296
3.9,57.0048,14.831,100.065,0.0013467
3.95,57.5049,14.831,100.065,0.0010214
4,58.005,14.831,100.066,0.0012993
4.05,58.5051,14.831,100.066,0.0013907
4.1,59.0052,14.831,100.067,0.0012041
4.15,59.5053,14.831,100.067,0.0013880
4.2,60.0054,14.831,100.068,0.0010178
4.25,60.5054,14.831,100.068,0.0010633
4.3,61.0055,14.831,100.069,0.0011093
4.35,61.5056,14.831,100.069,0.0008777
4.4,62.0057,14.832,100.07,0.0009696
4.45,62.5058,14.832,100.07,0.0009229
4.51,63.0059,14.832,100.071,0.0009223
4.56,63.506,14.832,100.071,0.0011522
4.61,64.0061,14.832,100.072,0.0010132
4.66,64.5062,14.832,100.072,0.0009670
4.71,65.0063,14.832,100.073,0.0012424
4.76,65.5063,14.832,100.073,0.0011037
4.81,66.0064,14.832,100.074,0.0010111
4.86,66.5065,14.832,100.074,0.0010569
4.91,67.0066,14.832,100.074,0.0012412
4.96,67.5067,14.832,100.075,0.0010112
5.01,68.0068,14.832,100.075,0.0008727
5.06,68.5069,14.832,100.076,0.0006426
5.11,69.007,14.832,100.076,0.0009185
5.16,69.5071,14.833,100.077,0.0006885
5.21,70.0071,14.833,100.077,0.0005047
5.26,70.5072,14.833,100.078,0.0008714
5.31,71.0073,14.833,100.078,0.0005504
5.36,71.5074,14.833,100.078,0.0007797
5.41,72.0075,14.833,100.079,0.0006881
5.46,72.5076,14.833,100.079,0.0009175
5.51,73.0077,14.833,100.08,0.0006426
5.56,73.5078,14.833,100.08,0.0008257
5.61,74.0079,14.833,100.08,0.0008256
5.66,74.5079,14.833,100.081,0.0009171
5.71,75.008,14.833,100.081,0.0008249
5.76,75.5081,14.833,100.082,0.0011906
5.81,76.0082,14.833,100.082,0.0010530
5.86,76.5083,14.833,100.082,0.0008243
5.91,77.0084,14.833,100.083,0.0009614
5.96,77.5085,14.834,100.083,0.0007783
6.01,78.0086,14.834,100.084,0.0006866
6.06,78.5087,14.834,100.084,0.0008242
6.11,79.0088,14.834,100.084,0.0009613
6.16,79.5088,14.834,100.085,0.0004120
6.21,80.0089,14.834,100.085,0.0008239
6.26,80.509,14.834,100.086,0.0005494
6.31,81.0091,14.834,100.086,0.0008700
6.36,81.5092,14.834,100.086,0.0005036
6.41,82.0093,14.834,100.087,0.0003664
6.46,82.5094,14.834,100.087,0.0006869
6.51,83.0095,14.834,100.087,0.0005951
6.56,83.5096,14.834,100.088,0.0009610
6.61,84.0096,14.834,100.088,0.0004117
6.66,84.5097,14.834,100.088,0.0006405
6.71,85.0098,14.834,100.088,0.0007777
6.76,85.5099,14.834,100.089,0.0005946
6.81,86.01,14.834,100.089,0.0004574
6.86,86.5101,14.834,100.089,0.0005031
6.91,87.0102,14.834,100.09,0.0009149
6.96,87.5103,14.835,100.09,0.0006402
7.01,88.0104,14.835,100.09,0.0004572
7.06,88.5104,14.835,100.09,0.0002745
7.11,89.0105,14.835,100.091,0.0005486
7.16,89.5106,14.835,100.091,0.0002286
7.21,90.0107,14.835,100.091,0.0004115
7.26,90.5108,14.835,100.091,0.0003202
7.31,91.0109,14.835,100.092,0.0003203
7.36,91.511,14.835,100.092,0.0002289
7.41,92.0111,14.835,100.092,0.0007321
7.46,92.5112,14.835,100.092,0.0005035
7.51,93.0113,14.835,100.092,0.0004575
7.56,93.5113,14.835,100.093,0.0005487
7.61,94.0114,14.835,100.093,0.0004575
7.66,94.5115,14.835,100.093,0.0003201
7.71,95.0116,14.835,100.093,0.0005486
7.76,95.5117,14.835,100.094,0.0003658
7.81,96.0118,14.835,100.094,0.0002286
7.86,96.5119,14.835,100.094,0.0002287
7.91,97.012,14.835,100.094,0.0001829
7.96,97.5121,14.835,100.094,0.0004574
8.01,98.0121,14.835,100.094,0.0003203
8.06,98.5122,14.835,100.094,0.0004576
8.11,99.0123,14.835,100.095,0.0002288
8.16,99.5124,14.835,100.095,0.0004578
8.21,100.013,14.835,100.095,0.0002746
8.26,100.513,14.835,100.095,0.0001831
8.31,101.013,14.835,100.095,0.0003205
8.36,101.513,14.835,100.095,0.0004121
8.41,102.013,14.835,100.095,0.0003663
8.46,102.513,14.835,100.096,0.0001831
8.51,103.013,14.835,100.096,0.0001373
8.56,103.513,14.835,100.096,0.0002289
8.61,104.013,14.835,100.096,0.0001831
8.66,104.513,14.835,100.096,0.0003663
8.71,105.013,14.835,100.096,0.0003202
8.76,105.513,14.835,100.096,0.0001373
8.81,106.014,14.835,100.096,0.0000915
8.86,106.514,14.835,100.096,-0.0000915
8.91,107.014,14.835,100.096,-0.0002287
8.96,107.514,14.836,100.097,0.0003205
9.01,108.014,14.836,100.097,0.0000917
9.06,108.514,14.836,100.097,0.0003664
9.11,109.014,14.836,100.097,0.0001374
9.16,109.514,14.836,100.097,0.0003203
9.21,110.014,14.836,100.097,0.0003202
9.26,110.514,14.836,100.097,0.0000000
9.31,111.014,14.836,100.097,0.0000458
9.36,111.515,14.836,100.097,-0.0000915
9.41,112.015,14.836,100.097,0.0001373
9.46,112.515,14.836,100.097,-0.0000458
9.51,113.015,14.836,100.097,0.0000000
9.56,113.515,14.836,100.097,-0.0002288
9.61,114.015,14.836,100.097,0.0001373
9.66,114.515,14.836,100.097,0.0000915
9.71,115.015,14.836,100.097,0.0003206
9.76,115.515,14.836,100.097,-0.0001374
9.81,116.015,14.836,100.097,-0.0002290
9.86,116.515,14.836,100.097,0.0002290
9.91,117.016,14.836,100.097,-0.0002749
9.96,117.516,14.836,100.097,0.0000000
10.01,118.016,14.836,100.097,0.0000000
10.06,118.516,14.836,100.097,0.0001374
10.11,119.016,14.836,100.097,-0.0000916
10.16,119.516,14.836,100.097,0.0000000
10.21,120.016,14.836,100.097,0.0000000
10.26,120.516,14.836,100.097,0.0000458
10.31,121.016,14.836,100.097,0.0000000
10.36,121.516,14.836,100.097,0.0000000
10.41,122.016,14.836,100.097,-0.0001834
10.46,122.517,14.836,100.097,-0.0002751
10.51,123.017,14.836,100.097,0.0000000
10.56,123.517,14.836,100.097,0.0002291
10.61,124.017,14.836,100.097,-0.0001375
10.66,124.517,14.836,100.097,0.0001834
10.71,125.017,14.836,100.097,0.0000917
10.76,125.517,14.836,100.098,0.0000917
10.81,126.017,14.836,100.098,0.0003666
10.86,126.517,14.836,100.098,0.0000000
10.91,127.017,14.836,100.098,0.0002291
10.96,127.517,14.836,100.098,0.0003670
11.01,128.018,14.836,100.098,0.0001376
11.06,128.518,14.836,100.098,0.0005046
11.11,129.018,14.836,100.098,0.0002294
11.16,129.518,14.836,100.098,0.0001834
11.21,130.018,14.836,100.099,0.0005046
11.26,130.518,14.836,100.099,0.0001835
11.31,131.018,14.836,100.099,0.0002294
11.36,131.518,14.836,100.099,0.0003212
11.41,132.018,14.836,100.099,0.0003671
11.46,132.518,14.836,100.099,0.0003671
11.51,133.018,14.836,100.099,0.0005964
11.56,133.518,14.836,100.1,0.0003667
11.61,134.019,14.836,100.1,0.0003667
11.66,134.519,14.836,100.1,0.0001374
11.71,135.019,14.836,100.1,0.0000000
11.76,135.519,14.836,100.1,0.0000000
11.81,136.019,14.836,100.1,0.0000916
11.86,136.519,14.836,100.1,0.0000000
11.91,137.019,14.836,100.1,-0.0001372
11.96,137.519,14.836,100.1,-0.0001828
12.01,138.019,14.836,100.1,-0.0005023
12.06,138.519,14.836,100.1,-0.0004558
12.11,139.019,14.836,100.099,-0.0006379
12.16,139.52,14.836,100.099,-0.0005469
12.21,140.02,14.836,100.099,-0.0007293
12.26,140.52,14.836,100.098,-0.0009116
12.31,141.02,14.836,100.098,-0.0011840
12.36,141.52,14.836,100.097,-0.0012739
12.41,142.02,14.835,100.096,-0.0018640
12.46,142.52,14.835,100.095,-0.0018641
12.51,143.02,14.835,100.094,-0.0021822
12.56,143.52,14.835,100.094,-0.0022273
12.61,144.02,14.835,100.093,-0.0018636
12.66,144.52,14.835,100.092,-0.0018193
12.71,145.021,14.835,100.091,-0.0015473
12.76,145.521,14.835,100.09,-0.0015941
12.81,146.021,14.834,100.089,-0.0014582
12.86,146.521,14.834,100.088,-0.0013699
12.91,147.021,14.834,100.088,-0.0013257
12.96,147.521,14.834,100.087,-0.0012817
13.01,148.021,14.834,100.086,-0.0012835
13.06,148.521,14.834,100.086,-0.0014229
13.11,149.021,14.834,100.085,-0.0011942
13.16,149.521,14.834,100.085,-0.0005511
13.21,150.021,14.834,100.084,-0.0011032
13.26,150.522,14.834,100.084,-0.0011492
13.31,151.022,14.834,100.083,-0.0009195
13.36,151.522,14.833,100.083,-0.0009194
13.41,152.022,14.833,100.082,-0.0007817
13.46,152.522,14.833,100.082,-0.0007354
13.51,153.022,14.833,100.081,-0.0009653
13.56,153.522,14.833,100.081,-0.0008273
13.61,154.022,14.833,100.081,-0.0007813
13.66,154.522,14.833,100.08,-0.0004132
13.71,155.022,14.833,100.08,-0.0005971
13.76,155.522,14.833,100.08,-0.0007810
13.81,156.023,14.833,100.079,-0.0008726
13.86,156.523,14.833,100.079,-0.0006894
13.91,157.023,14.833,100.079,-0.0009189
13.96,157.523,14.833,100.078,-0.0010106
14.01,158.023,14.833,100.078,-0.0010101
14.06,158.523,14.833,100.077,-0.0007808
14.11,159.023,14.833,100.077,-0.0008253
14.16,159.523,14.833,100.077,-0.0008248
14.21,160.023,14.833,100.076,-0.0008705
14.26,160.523,14.832,100.076,-0.0005959
14.31,161.023,14.832,100.076,-0.0008254
14.36,161.523,14.832,100.075,-0.0006885
14.41,162.024,14.832,100.075,-0.0005972
14.46,162.524,14.832,100.075,-0.0003215
14.51,163.024,14.832,100.074,-0.0009180
14.56,163.524,14.832,100.074,-0.0010104
14.61,164.024,14.832,100.073,-0.0009180
14.66,164.524,14.832,100.073,-0.0007791
14.71,165.024,14.832,100.073,-0.0009159
14.76,165.524,14.832,100.072,-0.0007787
14.81,166.024,14.832,100.072,-0.0006877
14.87,166.524,14.832,100.071,-0.0005502
14.92,167.024,14.832,100.071,-0.0008252
14.97,167.525,14.832,100.071,-0.0012836
15.02,168.025,14.832,100.07,-0.0008700
15.07,168.525,14.832,100.07,-0.0007777
15.12,169.025,14.831,100.069,-0.0011433
15.17,169.525,14.831,100.069,-0.0009155
15.22,170.025,14.831,100.068,-0.0010987
15.27,170.525,14.831,100.068,-0.0008704
15.32,171.025,14.831,100.067,-0.0009167
15.37,171.525,14.831,100.067,-0.0007333
15.42,172.025,14.831,100.067,-0.0010083
15.47,172.525,14.831,100.066,-0.0009177
15.52,173.026,14.831,100.065,-0.0010543
15.57,173.526,14.831,100.065,-0.0008252
15.62,174.026,14.831,100.065,-0.0010078
15.67,174.526,14.831,100.064,-0.0010076
15.72,175.026,14.831,100.064,-0.0011457
15.77,175.526,14.831,100.063,-0.0009166
15.82,176.026,14.83,100.063,-0.0008247
15.87,176.526,14.83,100.062,-0.0011447
15.92,177.026,14.83,100.062,-0.0009155
15.97,177.526,14.83,100.061,-0.0010069
16.02,178.026,14.83,100.061,-0.0010073
16.07,178.527,14.83,100.06,-0.0006420
16.12,179.027,14.83,100.06,-0.0007796
16.17,179.527,14.83,100.059,-0.0009173
16.22,180.027,14.83,100.059,-0.0008716
16.27,180.527,14.83,100.058,-0.0009168
16.32,181.027,14.83,100.058,-0.0012370
16.37,181.527,14.83,100.057,-0.0011455
16.42,182.027,14.83,100.057,-0.0010985
16.47,182.527,14.83,100.056,-0.0012811
16.52,183.027,14.829,100.056,-0.0010529
16.57,183.527,14.829,100.055,-0.0012363
16.62,184.028,14.829,100.055,-0.0009162
16.67,184.528,14.829,100.054,-0.0009168
16.72,185.028,14.829,100.054,-0.0011918
16.77,185.528,14.829,100.053,-0.0013756
16.82,186.028,14.829,100.053,-0.0014217
16.87,186.528,14.829,100.052,-0.0011916
16.92,187.028,14.829,100.052,-0.0011905
16.97,187.528,14.829,100.051,-0.0010526
17.02,188.028,14.829,100.051,-0.0009605
17.07,188.528,14.829,100.05,-0.0010056
17.12,189.028,14.829,100.05,-0.0009145
17.17,189.528,14.828,100.049,-0.0013285
17.22,190.029,14.828,100.049,-0.0011013
17.27,190.529,14.828,100.048,-0.0012859
17.32,191.029,14.828,100.047,-0.0008727
17.37,191.529,14.828,100.047,-0.0010555
17.42,192.029,14.828,100.046,-0.0012374
17.47,192.529,14.828,100.046,-0.0013270
17.52,193.029,14.828,100.045,-0.0011436
17.57,193.529,14.828,100.044,-0.0015103
17.62,194.029,14.828,100.044,-0.0012374
17.67,194.529,14.828,100.043,-0.0014207
17.72,195.029,14.828,100.043,-0.0010999
17.77,195.53,14.827,100.042,-0.0015130
17.82,196.03,14.827,100.041,-0.0009173
17.87,196.53,14.827,100.041,-0.0011464
17.92,197.03,14.827,100.04,-0.0012832
17.97,197.53,14.827,100.04,-0.0010526
18.02,198.03,14.827,100.039,-0.0014177
18.07,198.53,14.827,100.038,-0.0011436
18.12,199.03,14.827,100.038,-0.0013727
18.17,199.53,14.827,100.037,-0.0010526
18.22,200.03,14.827,100.037,-0.0011442
18.27,200.53,14.827,100.036,-0.0011446
18.32,201.031,14.826,100.036,-0.0010541
18.37,201.531,14.826,100.035,-0.0011457
18.42,202.031,14.826,100.034,-0.0010999
18.47,202.531,14.826,100.034,-0.0011465
18.52,203.031,14.826,100.033,-0.0015589
18.57,203.531,14.826,100.032,-0.0014675
18.62,204.031,14.826,100.032,-0.0013288
18.67,204.531,14.826,100.031,-0.0012363
18.72,205.031,14.826,100.031,-0.0012817
18.77,205.531,14.826,100.03,-0.0011450
18.82,206.031,14.826,100.029,-0.0010544
18.87,206.532,14.825,100.029,-0.0016040
18.92,207.032,14.825,100.028,-0.0013287
18.97,207.532,14.825,100.028,-0.0009159
19.02,208.032,14.825,100.027,-0.0011454
19.07,208.532,14.825,100.027,-0.0013294
19.12,209.032,14.825,100.026,-0.0014194
19.17,209.532,14.825,100.025,-0.0012353
19.22,210.032,14.825,100.024,-0.0013740
19.27,210.532,14.825,100.024,-0.0012374
19.32,211.032,14.825,100.023,-0.0011465
19.37,211.532,14.825,100.022,-0.0012847
19.42,212.033,14.824,100.022,-0.0014672
19.47,212.533,14.824,100.021,-0.0012370
19.52,213.033,14.824,100.02,-0.0015102
19.57,213.533,14.824,100.02,-0.0010986
19.62,214.033,14.824,100.019,-0.0014643
19.67,214.533,14.824,100.018,-0.0013736
19.72,215.033,14.824,100.018,-0.0014181
19.77,215.533,14.824,100.017,-0.0014183
19.82,216.033,14.824,100.016,-0.0014655
19.87,216.533,14.823,100.016,-0.0012826
19.92,217.033,14.823,100.015,-0.0012380
19.97,217.533,14.823,100.014,-0.0015123
20.02,218.034,14.823,100.013,-0.0012368
20.07,218.534,14.823,100.013,-0.0014659
20.12,219.034,14.823,100.012,-0.0014210
20.17,219.534,14.823,100.011,-0.0013751
20.22,220.034,14.823,100.01,-0.0013755
20.27,220.534,14.823,100.01,-0.0012834
20.32,221.034,14.823,100.009,-0.0016509
20.37,221.534,14.822,100.008,-0.0012848
20.42,222.034,14.822,100.008,-0.0014230
20.47,222.534,14.822,100.007,-0.0015589
20.52,223.034,14.822,100.006,-0.0015558
20.57,223.535,14.822,100.006,-0.0012812
20.62,224.035,14.822,100.005,-0.0015100
20.67,224.535,14.822,100.004,-0.0014647
20.72,225.035,14.822,100.004,-0.0015561
20.77,225.535,14.822,100.003,-0.0015119
20.82,226.035,14.822,100.002,-0.0011454
20.87,226.535,14.821,100.002,-0.0011440
20.92,227.035,14.821,100.001,-0.0013721
20.97,227.535,14.821,100,-0.0014639
21.02,228.035,14.821,99.999,-0.0015094
21.07,228.535,14.821,99.999,-0.0016954
21.12,229.036,14.821,99.998,-0.0016977
21.17,229.536,14.821,99.997,-0.0016067
21.22,230.036,14.821,99.996,-0.0013762
21.27,230.536,14.821,99.996,-0.0015589
21.32,231.036,14.82,99.995,-0.0015110
21.37,231.536,14.82,99.994,-0.0013270
21.42,232.036,14.82,99.993,-0.0015110
21.47,232.536,14.82,99.993,-0.0016033
21.52,233.036,14.82,99.992,-0.0014661
21.57,233.536,14.82,99.991,-0.0015578
21.62,234.036,14.82,99.99,-0.0015107
21.67,234.537,14.82,99.99,-0.0016018
21.72,235.037,14.82,99.989,-0.0015558
21.77,235.537,14.819,99.988,-0.0016026
21.82,236.037,14.819,99.987,-0.0013287
21.87,236.537,14.819,99.987,-0.0010997
21.92,237.037,14.819,99.986,-0.0013745
21.97,237.537,14.819,99.985,-0.0012832
22.02,238.037,14.819,99.985,-0.0015578
22.07,238.537,14.819,99.984,-0.0014207
22.12,239.037,14.819,99.983,-0.0017407
22.17,239.537,14.819,99.982,-0.0013297
22.22,240.038,14.818,99.981,-0.0013762
22.27,240.538,14.818,99.981,-0.0017901
22.32,241.038,14.818,99.98,-0.0016524
22.37,241.538,14.818,99.979,-0.0011925
22.42,242.038,14.818,99.978,-0.0014207
22.47,242.538,14.818,99.977,-0.0017404
22.52,243.038,14.818,99.977,-0.0016481
22.57,243.538,14.818,99.976,-0.0016467
22.62,244.038,14.817,99.975,-0.0016464
22.67,244.538,14.817,99.974,-0.0018303
22.72,245.038,14.817,99.973,-0.0018763
22.77,245.538,14.817,99.972,-0.0020138
22.82,246.039,14.817,99.972,-0.0014645
22.87,246.539,14.817,99.971,-0.0013272
22.92,247.039,14.817,99.97,-0.0016015
22.97,247.539,14.817,99.969,-0.0021540
23.02,248.039,14.816,99.968,-0.0017407
23.07,248.539,14.816,99.967,-0.0020633
23.12,249.039,14.816,99.966,-0.0015592
23.17,249.539,14.816,99.966,-0.0016508
23.22,250.039,14.816,99.965,-0.0013746
23.27,250.539,14.816,99.964,-0.0018323
23.32,251.039,14.816,99.963,-0.0017852
23.37,251.54,14.816,99.962,-0.0018759
23.42,252.04,14.815,99.961,-0.0017841
23.47,252.54,14.815,99.96,-0.0018285
23.52,253.04,14.815,99.959,-0.0017364
23.57,253.54,14.815,99.958,-0.0016001
23.62,254.04,14.815,99.958,-0.0016001
23.67,254.54,14.815,99.957,-0.0018773
23.72,255.04,14.815,99.956,-0.0017849
23.77,255.54,14.815,99.955,-0.0019240
23.82,256.04,14.814,99.954,-0.0015590
23.87,256.54,14.814,99.953,-0.0018807
23.92,257.041,14.814,99.952,-0.0018339
23.97,257.541,14.814,99.952,-0.0017447
24.02,258.041,14.814,99.951,-0.0018376
24.07,258.541,14.814,99.95,-0.0021112
24.12,259.041,14.814,99.949,-0.0020623
24.17,259.541,14.813,99.948,-0.0019689
24.22,260.041,14.813,99.947,-0.0020604
24.27,260.541,14.813,99.946,-0.0019700
24.32,261.041,14.813,99.945,-0.0019220
24.37,261.541,14.813,99.944,-0.0015553
24.42,262.041,14.813,99.943,-0.0016926
24.47,262.542,14.813,99.942,-0.0018766
24.52,263.042,14.813,99.941,-0.0017390
24.57,263.542,14.812,99.941,-0.0016474
24.62,264.042,14.812,99.94,-0.0018299
24.67,264.542,14.812,99.939,-0.0017847
24.72,265.042,14.812,99.938,-0.0020158
24.77,265.542,14.812,99.937,-0.0019689
24.82,266.042,14.812,99.936,-0.0016040
24.87,266.542,14.812,99.935,-0.0017415
24.92,267.042,14.811,99.934,-0.0020623
24.97,267.542,14.811,99.933,-0.0018342
25.02,268.043,14.811,99.932,-0.0019671
25.07,268.543,14.811,99.931,-0.0018315
25.12,269.043,14.811,99.931,-0.0018315
25.17,269.543,14.811,99.93,-0.0019671
25.22,270.043,14.811,99.929,-0.0019206
25.27,270.543,14.81,99.928,-0.0018322
25.32,271.043,14.81,99.927,-0.0021568
25.37,271.543,14.81,99.926,-0.0022047
25.42,272.043,14.81,99.925,-0.0020657
25.47,272.543,14.81,99.924,-0.0023416
25.52,273.043,14.81,99.923,-0.0018807
25.57,273.543,14.81,99.922,-0.0019700
25.62,274.044,14.809,99.921,-0.0023331
25.67,274.544,14.809,99.92,-0.0021508
25.72,275.044,14.809,99.919,-0.0019220
25.77,275.544,14.809,99.918,-0.0021978
25.82,276.044,14.809,99.916,-0.0024241
25.87,276.544,14.809,99.915,-0.0022852
25.92,277.044,14.808,99.914,-0.0020604
25.97,277.544,14.808,99.913,-0.0022007
26.02,278.044,14.808,99.912,-0.0018349
26.07,278.544,14.808,99.911,-0.0021560
26.12,279.044,14.808,99.91,-0.0020631
26.18,279.545,14.808,99.909,-0.0020165
26.23,280.045,14.808,99.908,-0.0021527
26.28,280.545,14.807,99.907,-0.0019707
26.33,281.045,14.807,99.906,-0.0021548
26.38,281.545,14.807,99.905,-0.0023382
26.43,282.045,14.807,99.904,-0.0022010
26.48,282.545,14.807,99.903,-0.0022423
26.53,283.045,14.807,99.902,-0.0022869
26.58,283.545,14.806,99.9,-0.0022852
26.63,284.045,14.806,99.899,-0.0018258
26.68,284.545,14.806,99.898,-0.0018298
26.73,285.046,14.806,99.897,-0.0019241
26.78,285.546,14.806,99.896,-0.0020172
26.83,286.046,14.806,99.895,-0.0019699
26.88,286.546,14.805,99.894,-0.0023352
26.93,287.046,14.805,99.893,-0.0020616
26.98,287.546,14.805,99.892,-0.0023394
27.03,288.046,14.805,99.891,-0.0019256
27.08,288.546,14.805,99.89,-0.0020619
27.13,289.046,14.805,99.888,-0.0023338
27.18,289.546,14.805,99.887,-0.0020574
27.23,290.046,14.804,99.886,-0.0026557
27.28,290.547,14.804,99.885,-0.0023862
27.33,291.047,14.804,99.884,-0.0022456
27.38,291.547,14.804,99.883,-0.0023360
27.43,292.047,14.804,99.882,-0.0022427
27.48,292.547,14.803,99.88,-0.0023339
27.53,293.047,14.803,99.879,-0.0022885
27.58,293.547,14.803,99.878,-0.0023368
27.63,294.047,14.803,99.877,-0.0022018
27.68,294.547,14.803,99.876,-0.0022936
27.73,295.047,14.803,99.874,-0.0026591
27.78,295.547,14.802,99.873,-0.0026605
27.83,296.048,14.802,99.872,-0.0027941
27.88,296.548,14.802,99.871,-0.0027015
27.93,297.048,14.802,99.869,-0.0027941
27.98,297.548,14.802,99.868,-0.0021978
28.03,298.048,14.801,99.867,-0.0025183
28.08,298.548,14.801,99.866,-0.0024259
28.13,299.048,14.801,99.864,-0.0024254
28.18,299.548,14.801,99.863,-0.0027930
28.23,300.048,14.801,99.862,-0.0024267
28.28,300.548,14.801,99.861,-0.0023360
28.33,301.048,14.8,99.859,-0.0024721
28.38,301.548,14.8,99.858,-0.0022894
28.43,302.049,14.8,99.857,-0.0026557
28.48,302.549,14.8,99.856,-0.0025197
28.53,303.049,14.8,99.854,-0.0025206
28.58,303.549,14.799,99.853,-0.0024289
28.63,304.049,14.799,99.852,-0.0022018
28.68,304.549,14.799,99.851,-0.0027982
28.73,305.049,14.799,99.849,-0.0026596
28.78,305.549,14.799,99.848,-0.0026965
28.83,306.049,14.798,99.847,-0.0028399
28.88,306.549,14.798,99.845,-0.0029762
28.93,307.049,14.798,99.844,-0.0025183
28.98,307.55,14.798,99.843,-0.0025641
29.03,308.05,14.798,99.841,-0.0025151
29.08,308.55,14.798,99.84,-0.0026066
29.13,309.05,14.797,99.839,-0.0025137
29.18,309.55,14.797,99.838,-0.0026080
29.23,310.05,14.797,99.836,-0.0024707
29.28,310.55,14.797,99.835,-0.0025655
29.33,311.05,14.797,99.834,-0.0027962
29.38,311.55,14.796,99.832,-0.0028862
29.43,312.05,14.796,99.831,-0.0026114
29.48,312.55,14.796,99.83,-0.0028879
29.53,313.051,14.796,99.828,-0.0023810
29.58,313.551,14.796,99.827,-0.0030644
29.63,314.051,14.795,99.825,-0.0028836
29.68,314.551,14.795,99.824,-0.0027946
29.73,315.051,14.795,99.823,-0.0027498
29.78,315.551,14.795,99.821,-0.0028873
29.83,316.051,14.795,99.82,-0.0029341
29.88,316.551,14.794,99.818,-0.0030717
29.93,317.051,14.794,99.817,-0.0029341
29.98,317.551,14.794,99.816,-0.0027498
30.03,318.051,14.794,99.814,-0.0027039
30.08,318.552,14.793,99.813,-0.0029789
30.13,319.052,14.793,99.811,-0.0026108
30.18,319.552,14.793,99.81,-0.0031136
30.23,320.052,14.793,99.808,-0.0027905
30.28,320.552,14.793,99.807,-0.0026533
30.33,321.052,14.792,99.805,-0.0028825
30.38,321.552,14.792,99.804,-0.0028793
30.43,322.052,14.792,99.802,-0.0032474
30.48,322.552,14.792,99.801,-0.0030654
30.53,323.052,14.791,99.799,-0.0031593
30.58,323.552,14.791,99.798,-0.0030701
30.63,324.053,14.791,99.796,-0.0032064
30.68,324.553,14.791,99.795,-0.0031610
30.73,325.053,14.791,99.793,-0.0031147
30.78,325.553,14.79,99.792,-0.0030220
30.83,326.053,14.79,99.79,-0.0031947
30.88,326.553,14.79,99.788,-0.0029653
30.93,327.053,14.79,99.787,-0.0030566
30.98,327.553,14.789,99.785,-0.0029746
31.03,328.053,14.789,99.784,-0.0030181
31.08,328.553,14.789,99.782,-0.0035160
31.13,329.053,14.789,99.78,-0.0031611
31.18,329.553,14.788,99.779,-0.0032979
31.23,330.054,14.788,99.777,-0.0032127
31.28,330.554,14.788,99.775,-0.0032569
31.33,331.054,14.788,99.774,-0.0032581
31.38,331.554,14.787,99.772,-0.0030678
31.43,332.054,14.787,99.771,-0.0032919
31.48,332.554,14.787,99.769,-0.0035629
31.53,333.054,14.787,99.767,-0.0035147
31.58,333.554,14.786,99.765,-0.0036073
31.63,334.054,14.786,99.764,-0.0031107
31.68,334.554,14.786,99.762,-0.0037559
31.73,335.054,14.786,99.76,-0.0035760
31.78,335.555,14.785,99.759,-0.0034862
31.83,336.055,14.785,99.757,-0.0032997
31.88,336.555,14.785,99.755,-0.0031565
31.93,337.055,14.785,99.754,-0.0033821
31.98,337.555,14.784,99.752,-0.0033821
32.03,338.055,14.784,99.75,-0.0035237
32.08,338.555,14.784,99.748,-0.0035269
32.13,339.055,14.784,99.746,-0.0036677
32.18,339.555,14.783,99.745,-0.0038955
32.23,340.055,14.783,99.743,-0.0034378
32.28,340.555,14.783,99.741,-0.0034842
32.33,341.056,14.783,99.739,-0.0037615
32.38,341.556,14.782,99.737,-0.0034830
32.43,342.056,14.782,99.735,-0.0037546
32.48,342.556,14.782,99.734,-0.0037969
32.53,343.056,14.781,99.732,-0.0035682
32.58,343.556,14.781,99.73,-0.0036603
32.63,344.056,14.781,99.728,-0.0037511
32.68,344.556,14.781,99.726,-0.0041133
32.73,345.056,14.78,99.724,-0.0038898
32.78,345.556,14.78,99.722,-0.0038941
32.83,346.056,14.78,99.72,-0.0039879
32.88,346.557,14.779,99.718,-0.0041262
32.93,347.057,14.779,99.716,-0.0041262
32.98,347.557,14.779,99.714,-0.0040330
33.03,348.057,14.779,99.712,-0.0040330
33.08,348.557,14.778,99.71,-0.0041254
33.13,349.057,14.778,99.708,-0.0039872
33.18,349.557,14.778,99.706,-0.0040751
33.23,350.057,14.777,99.704,-0.0042985
33.28,350.557,14.777,99.702,-0.0042938
33.33,351.057,14.777,99.7,-0.0041111
33.38,351.557,14.776,99.698,-0.0041636
33.43,352.058,14.776,99.695,-0.0041720
33.48,352.558,14.776,99.693,-0.0045012
33.53,353.058,14.775,99.691,-0.0043602
33.58,353.558,14.775,99.689,-0.0046789
33.63,354.058,14.775,99.686,-0.0047230
33.68,354.558,14.774,99.684,-0.0045413
33.73,355.058,14.774,99.682,-0.0049065
33.78,355.558,14.774,99.679,-0.0046288
33.83,356.058,14.773,99.677,-0.0047187
33.88,356.558,14.773,99.675,-0.0046703
33.93,357.058,14.773,99.672,-0.0045804
33.98,357.558,14.772,99.67,-0.0047144
34.03,358.059,14.772,99.668,-0.0046601
34.08,358.559,14.772,99.665,-0.0051123
34.13,359.059,14.771,99.663,-0.0049342
34.18,359.559,14.771,99.66,-0.0051160
34.23,360.059,14.77,99.658,-0.0048903
34.28,360.559,14.77,99.655,-0.0049908
34.33,361.059,14.77,99.653,-0.0051348
34.38,361.559,14.769,99.65,-0.0051376
34.43,362.059,14.769,99.647,-0.0052265
34.48,362.559,14.769,99.645,-0.0059099
34.53,363.059,14.768,99.642,-0.0055861
34.58,363.56,14.768,99.639,-0.0057287
34.63,364.06,14.767,99.636,-0.0057339
34.68,364.56,14.767,99.633,-0.0054995
34.73,365.06,14.766,99.63,-0.0059120
34.78,365.56,14.766,99.627,-0.0061847
34.83,366.06,14.766,99.624,-0.0059982
34.88,366.56,14.765,99.621,-0.0059916
34.93,367.06,14.765,99.618,-0.0060307
34.98,367.56,14.764,99.615,-0.0064828
35.03,368.06,14.764,99.612,-0.0062557
35.08,368.56,14.763,99.609,-0.0064864
35.13,369.061,14.763,99.606,-0.0065874
35.18,369.561,14.762,99.602,-0.0066392
35.23,370.061,14.762,99.599,-0.0069687
35.28,370.561,14.761,99.596,-0.0068770
35.33,371.061,14.761,99.592,-0.0071966
35.38,371.561,14.76,99.588,-0.0070971
35.43,372.061,14.76,99.585,-0.0074593
35.48,372.561,14.759,99.581,-0.0073233
35.53,373.061,14.759,99.577,-0.0080172
35.58,373.561,14.758,99.573,-0.0078827
35.63,374.061,14.757,99.569,-0.0076994
35.68,374.562,14.757,99.565,-0.0080172
35.73,375.062,14.756,99.561,-0.0083868
35.78,375.562,14.756,99.557,-0.0084862
35.83,376.062,14.755,99.553,-0.0087993
35.88,376.562,14.754,99.549,-0.0087044
35.93,377.062,14.754,99.544,-0.0091034
35.98,377.562,14.753,99.539,-0.0092779
36.03,378.062,14.752,99.535,-0.0090444
36.08,378.562,14.752,99.53,-0.0094047
36.13,379.062,14.751,99.525,-0.0098156
36.18,379.562,14.75,99.521,-0.0099617
36.23,380.063,14.749,99.515,-0.0103938
36.28,380.563,14.749,99.51,-0.0107660
36.33,381.063,14.748,99.505,-0.0108198
36.38,381.563,14.747,99.499,-0.0111345
36.43,382.063,14.746,99.494,-0.0113240
36.48,382.563,14.745,99.488,-0.0119092
36.53,383.063,14.744,99.482,-0.0118046
36.58,383.563,14.744,99.476,-0.0122598
36.63,384.063,14.743,99.47,-0.0125870
36.68,384.563,14.742,99.463,-0.0128017
36.73,385.063,14.741,99.457,-0.0134950
36.78,385.563,14.74,99.45,-0.0139194
36.83,386.064,14.739,99.443,-0.0140568
36.88,386.564,14.738,99.436,-0.0144821
36.93,387.064,14.736,99.428,-0.0150779
36.98,387.564,14.735,99.421,-0.0155362
37.03,388.064,14.734,99.413,-0.0160345
37.08,388.564,14.733,99.405,-0.0167185
37.13,389.064,14.732,99.397,-0.0167828
37.18,389.564,14.731,99.388,-0.0172319
37.23,390.064,14.729,99.379,-0.0175600
37.28,390.564,14.728,99.371,-0.0181801
37.33,391.064,14.727,99.361,-0.0185101
37.38,391.565,14.725,99.352,-0.0189740
37.43,392.065,14.724,99.342,-0.0195792
37.48,392.565,14.722,99.332,-0.0202270
37.53,393.065,14.721,99.322,-0.0207494
37.58,393.565,14.719,99.311,-0.0214862
37.63,394.065,14.718,99.3,-0.0219146
37.68,394.565,14.716,99.289,-0.0229358
37.73,395.065,14.714,99.278,-0.0231524
37.78,395.565,14.712,99.266,-0.0239011
37.83,396.065,14.711,99.254,-0.0241405
37.88,396.565,14.709,99.242,-0.0250640
37.93,397.066,14.707,99.229,-0.0262363
37.98,397.566,14.705,99.216,-0.0265325
38.03,398.066,14.703,99.202,-0.0274986
38.08,398.566,14.701,99.188,-0.0282545
38.13,399.066,14.699,99.174,-0.0291027
38.18,399.566,14.697,99.159,-0.0302434
38.23,400.066,14.694,99.144,-0.0309808
38.28,400.566,14.692,99.129,-0.0313875
38.33,401.066,14.69,99.113,-0.0321429
38.38,401.566,14.687,99.096,-0.0333913
38.43,402.066,14.685,99.079,-0.0347070
38.48,402.567,14.682,99.062,-0.0353808
38.53,403.067,14.679,99.044,-0.0360216
38.58,403.567,14.677,99.025,-0.0373947
38.63,404.067,14.674,99.007,-0.0385038
38.68,404.567,14.671,98.987,-0.0397021
38.73,405.067,14.668,98.967,-0.0406987
38.78,405.567,14.665,98.946,-0.0419260
38.83,406.067,14.662,98.925,-0.0429029
38.88,406.567,14.659,98.903,-0.0438700
38.93,407.067,14.655,98.881,-0.0450430
38.98,407.567,14.652,98.858,-0.0465201
39.03,408.068,14.648,98.835,-0.0472787
39.08,408.568,14.645,98.811,-0.0481982
39.13,409.068,14.641,98.786,-0.0496801
39.18,409.568,14.638,98.761,-0.0512186
39.23,410.068,14.634,98.735,-0.0529217
39.28,410.568,14.63,98.708,-0.0542357
39.33,411.068,14.626,98.681,-0.0552592
39.38,411.568,14.622,98.653,-0.0572267
39.43,412.068,14.617,98.624,-0.0583089
39.48,412.568,14.613,98.595,-0.0597369
39.53,413.068,14.608,98.564,-0.0615539
39.58,413.568,14.604,98.533,-0.0635493
39.63,414.069,14.599,98.501,-0.0652512
39.68,414.569,14.594,98.468,-0.0673885
39.73,415.069,14.589,98.433,-0.0693123
39.78,415.569,14.584,98.398,-0.0713893
39.83,416.069,14.578,98.362,-0.0731473
39.88,416.569,14.573,98.323,-0.0807869
39.93,417.069,14.566,98.281,-0.0834851
39.98,417.569,14.56,98.237,-0.0910462
40.03,418.069,14.553,98.189,-0.0985348
40.08,418.569,14.545,98.139,-0.1054610
40.13,419.069,14.537,98.085,-0.1061010
40.18,419.57,14.529,98.03,-0.1140500
40.23,420.07,14.521,97.972,-0.1186040
40.28,420.57,14.512,97.913,-0.1222500
40.33,421.07,14.503,97.852,-0.1265570
40.38,421.57,14.493,97.787,-0.1322940
40.43,422.07,14.483,97.719,-0.1338490
40.48,422.57,14.473,97.65,-0.1374360
40.53,423.07,14.462,97.579,-0.1448810
40.58,423.57,14.452,97.507,-0.1479000
40.63,424.07,14.441,97.432,-0.1550230
40.68,424.57,14.43,97.358,-0.1552050
40.73,425.071,14.418,97.278,-0.1618240
40.78,425.571,14.405,97.195,-0.1658130
40.83,426.071,14.393,97.11,-0.1759600
40.88,426.571,14.38,97.022,-0.1763310
40.93,427.071,14.366,96.931,-0.1833820
40.98,427.571,14.353,96.838,-0.1906050
41.03,428.071,14.338,96.74,-0.1997250
41.08,428.571,14.323,96.636,-0.2119380
41.13,429.071,14.306,96.526,-0.2288800
41.18,429.571,14.289,96.408,-0.2519610
41.23,430.071,14.269,96.276,-0.2679060
41.28,430.572,14.249,96.139,-0.2792880
41.33,431.072,14.228,95.994,-0.2960560
41.38,431.572,14.205,95.846,-0.3031510
41.43,432.072,14.183,95.691,-0.3164080
41.48,432.572,14.159,95.532,-0.3287040
41.53,433.072,14.134,95.365,-0.3424630
41.58,433.572,14.109,95.197,-0.3407540
41.63,434.072,14.084,95.028,-0.3489340
41.68,434.572,14.059,94.854,-0.3517710
41.73,435.072,14.032,94.673,-0.3730330
41.78,435.572,14.004,94.484,-0.3698600
41.83,436.073,13.975,94.29,-0.3920870
41.88,436.573,13.946,94.092,-0.4042720
41.93,437.073,13.915,93.886,-0.4177520
41.98,437.573,13.884,93.674,-0.4382110
42.03,438.073,13.851,93.451,-0.4552520
42.08,438.573,13.816,93.221,-0.4729150
42.13,439.073,13.782,92.985,-0.4764680
42.18,439.573,13.745,92.739,-0.5109470
42.23,440.073,13.707,92.482,-0.5301480
42.28,440.573,13.667,92.213,-0.5451340
42.33,441.073,13.626,91.934,-0.5793670
42.38,441.573,13.583,91.643,-0.5878490
42.43,442.074,13.538,91.34,-0.6151830
42.48,442.574,13.491,91.023,-0.6274770
42.53,443.074,13.443,90.699,-0.6656880
42.58,443.574,13.392,90.36,-0.6827020
42.63,444.074,13.341,90.016,-0.6837000
42.68,444.574,13.289,89.662,-0.7264650
42.73,445.074,13.234,89.292,-0.7799360
42.78,445.574,13.176,88.897,-0.8335180
42.83,446.074,13.115,88.49,-0.8375840
42.88,446.574,13.052,88.065,-0.8797250
42.93,447.074,12.988,87.63,-0.8728970
42.98,447.575,12.922,87.189,-0.9117170
43.03,448.075,12.854,86.724,-0.9680710
43.08,448.575,12.782,86.239,-0.9859050
43.13,449.075,12.706,85.728,-1.06303
43.18,449.575,12.628,85.201,-1.02204
43.23,450.075,12.548,84.665,-1.10086
43.28,450.575,12.465,84.101,-1.16937
43.33,451.075,12.377,83.506,-1.21979
43.38,451.575,12.284,82.883,-1.27177
43.43,452.075,12.184,82.206,-1.34656
43.48,452.575,12.081,81.514,-1.42845
43.53,453.076,11.972,80.779,-1.50331
43.58,453.576,11.865,80.058,-1.45726
43.63,454.076,11.756,79.317,-1.58248
43.68,454.576,11.636,78.511,-1.65897
43.73,455.076,11.512,77.676,-1.68423
43.78,455.576,11.386,76.823,-1.78393
43.83,456.076,11.251,75.91,-1.8224
43.88,456.576,11.114,74.986,-1.87851
43.93,457.076,10.971,74.023,-1.93498
43.98,457.576,10.822,73.014,-2.03514
44.03,458.076,10.665,71.956,-2.1415
44.08,458.577,10.501,70.853,-2.21408
44.13,459.077,10.332,69.711,-2.29514
44.18,459.577,10.16,68.55,-2.40802
44.23,460.077,9.988,67.389,-2.39033
44.28,460.577,9.808,66.173,-2.54522
44.33,461.077,9.618,64.891,-2.63628
44.38,461.577,9.411,63.499,-2.73803
44.43,462.077,9.213,62.159,-2.67094
44.48,462.577,9.011,60.798,-2.83021
44.53,463.077,8.798,59.361,-2.95975
44.58,463.577,8.576,57.865,-2.96973
44.63,464.078,8.355,56.371,-3.00545
44.68,464.578,8.129,54.849,-3.17368
44.73,465.078,7.891,53.24,-3.19107
44.78,465.578,7.653,51.633,-3.21893
44.83,466.078,7.405,49.962,-3.39095
44.88,466.578,7.153,48.262,-3.48119
44.93,467.078,6.897,46.536,-3.44451
44.98,467.578,6.637,44.779,-3.60238
45.03,468.078,6.376,43.019,-3.49645
45.08,468.578,6.109,41.217,-3.62233
45.13,469.078,5.838,39.39,-3.59043
45.18,469.578,5.571,37.59,-3.73471
45.23,470.079,5.296,35.735,-3.69607
45.28,470.579,5.019,33.864,-3.82863
45.33,471.079,4.74,31.98,-3.75509
45.38,471.579,4.466,30.131,-3.69813
45.43,472.079,4.2,28.339,-3.70633
45.48,472.579,3.925,26.48,-3.69424
45.53,473.079,3.656,24.667,-3.56807
45.58,473.579,3.389,22.868,-3.57573
45.63,474.079,3.129,21.111,-3.48238
45.68,474.579,2.872,19.38,-3.29843
45.73,475.079,2.626,17.718,-3.26195
45.78,475.58,2.394,16.151,-3.15424
45.83,476.08,2.163,14.593,-3.07919
45.88,476.58,1.943,13.112,-2.86519
45.93,477.08,1.733,11.695,-2.75684
45.98,477.58,1.536,10.365,-2.51728
46.03,478.08,1.353,9.13,-2.3651
46.08,478.58,1.183,7.984,-2.17687
46.13,479.08,1.029,6.941,-1.93743
46.18,479.58,0.8910000,6.013,-1.74367
46.23,480.08,0.7690000,5.191,-1.52398
46.28,480.58,0.6670000,4.501,-1.32688
46.33,481.081,0.5770000,3.893,-1.10584
46.38,481.581,0.5020000,3.388,-0.9058220
46.43,482.081,0.4420000,2.98,-0.7096810
46.48,482.581,0.3960000,2.671,-0.5602480
46.53,483.081,0.3600000,2.428,-0.4128250
46.58,483.581,0.3330000,2.249,-0.2945620
46.62,484.081,0.3160000,2.129,-0.2094360
46.67,484.581,0.3030000,2.046,-0.1322100
46.72,485.081,0.2950000,1.993,-0.0805735
46.77,485.581,0.2910000,1.962,-0.0427953
46.82,486.081,0.2880000,1.944,-0.0366376
46.87,486.582,0.2850000,1.925,-0.0355512
46.92,487.082,0.2830000,1.909,-0.0315295
46.98,487.582,0.2810000,1.894,-0.0265942
47.03,488.082,0.2790000,1.882,-0.0213411
47.08,488.582,0.2770000,1.872,-0.0173757
47.13,489.082,0.2760000,1.864,-0.0140027
47.18,489.582,0.2750000,1.858,-0.0109042
47.23,490.082,0.2750000,1.853,-0.0085868
47.28,490.582,0.2740000,1.85,-0.0068618
47.33,491.082,0.2740000,1.847,-0.0052225
47.38,491.582,0.2730000,1.844,-0.0042956
47.43,492.083,0.2730000,1.842,-0.0035547
47.48,492.583,0.2730000,1.841,-0.0025229
47.53,493.083,0.2730000,1.84,-0.0019675
47.58,493.583,0.2730000,1.839,-0.0013038
47.63,494.083,0.2720000,1.838,-0.0013977
47.68,494.583,0.2720000,1.838,-0.0012389
47.73,495.083,0.2720000,1.837,-0.0006144
47.78,495.583,0.2720000,1.837,-0.0005555
47.83,496.083,0.2720000,1.836,-0.0004364
47.88,496.583,0.2720000,1.836,-0.0005175
47.93,497.083,0.2720000,1.836,-0.0004053
47.98,497.583,0.2720000,1.836,-0.0002246
48.03,498.084,0.2720000,1.836,-0.0004577
48.08,498.584,0.2720000,1.836,-0.0001445
48.13,499.084,0.2720000,1.835,0.0000143
48.18,499.584,0.2720000,1.835,-0.0003797
48.23,500.084,0.2720000,1.835,-0.0001209
48.28,500.584,0.2720000,1.835,-0.0002118
48.33,501.084,0.2720000,1.835,-0.0001437
48.38,501.584,0.2720000,1.835,0.0001924
48.43,502.084,0.2720000,1.835,-0.0001588
48.48,502.584,0.2720000,1.835,0.0000810
48.53,503.084,0.2720000,1.835,-0.0001944
48.58,503.585,0.2720000,1.835,0.0002745
48.63,504.085,0.2720000,1.835,-0.0000589
48.68,504.585,0.2720000,1.835,0.0000106
48.73,505.085,0.2720000,1.835,-0.0001684
48.78,505.585,0.2720000,1.835,-0.0002557
48.83,506.085,0.2720000,1.835,0.0000892
48.88,506.585,0.2720000,1.835,-0.0001771
48.93,507.085,0.2720000,1.835,-0.0000272
48.98,507.585,0.2720000,1.835,-0.0000952
49.03,508.085,0.2720000,1.835,-0.0002754
49.08,508.585,0.2720000,1.835,0.0001565
49.13,509.086,0.2720000,1.835,-0.0002628
49.18,509.586,0.2720000,1.835,-0.0001994
49.23,510.086,0.2720000,1.835,0.0001272
49.28,510.586,0.2720000,1.835,0.0002330
49.33,511.086,0.2720000,1.835,0.0004330
49.38,511.586,0.2720000,1.835,0.0000143
49.43,512.086,0.2720000,1.835,0.0004061
49.48,512.586,0.2720000,1.835,0.0000916
49.53,513.086,0.2720000,1.835,0.0002263
49.58,513.586,0.2720000,1.835,-0.0001425
49.63,514.086,0.2720000,1.835,0.0001345
49.68,514.587,0.2720000,1.835,-0.0001574
49.73,515.087,0.2720000,1.835,0.0000622
49.78,515.587,0.2720000,1.836,0.0002105
49.83,516.087,0.2720000,1.836,0.0000199
49.88,516.587,0.2720000,1.836,-0.0000735
49.93,517.087,0.2720000,1.836,-0.0000765
49.98,517.587,0.2720000,1.836,-0.0001835
50.03,518.087,0.2720000,1.836,0.0000622
50.08,518.587,0.2720000,1.836,-0.0000530
50.13,519.087,0.2720000,1.836,-0.0002246
50.18,519.587,0.2720000,1.836,0.0000710
50.23,520.088,0.2720000,1.836,-0.0000337
50.28,520.588,0.2720000,1.836,0.0000873
50.33,521.088,0.2720000,1.836,-0.0000821
50.38,521.588,0.2720000,1.836,-0.0002155
50.43,522.088,0.2720000,1.836,-0.0002718
50.48,522.588,0.2720000,1.835,0.0000594
50.53,523.088,0.2720000,1.835,0.0000593
50.58,523.588,0.2720000,1.836,-0.0000457
50.63,524.088,0.2720000,1.835,-0.0003285
50.68,524.588,0.2720000,1.836,-0.0000179
50.73,525.088,0.2720000,1.836,-0.0001078
50.78,525.588,0.2720000,1.836,0.0001130
50.83,526.089,0.2720000,1.836,-0.0002332
50.88,526.589,0.2720000,1.835,-0.0001404
50.93,527.089,0.2720000,1.835,-0.0000652
50.98,527.589,0.2720000,1.835,-0.0000150
51.03,528.089,0.2720000,1.835,-0.0001808
51.08,528.589,0.2720000,1.835,-0.0002293
51.13,529.089,0.2720000,1.835,0.0000458
51.18,529.589,0.2720000,1.835,-0.0001045
51.23,530.089,0.2720000,1.835,-0.0000315
51.28,530.589,0.2720000,1.835,0.0000529
51.33,531.089,0.2720000,1.835,-0.0000729
51.38,531.59,0.2720000,1.835,0.0001351
51.43,532.09,0.2720000,1.835,-0.0000999
51.48,532.59,0.2720000,1.835,-0.0001578
51.53,533.09,0.2720000,1.835,-0.0001401
51.58,533.59,0.2720000,1.835,0.0000215
51.63,534.09,0.2720000,1.835,0.0001507
51.68,534.59,0.2720000,1.835,-0.0001871
51.73,535.09,0.2720000,1.835,0.0000078
51.78,535.59,0.2720000,1.835,0.0000171
51.83,536.09,0.2720000,1.835,0.0000895
51.88,536.59,0.2720000,1.835,-0.0002162
51.93,537.091,0.2720000,1.835,-0.0001238
51.98,537.591,0.2720000,1.835,0.0000229
52.03,538.091,0.2720000,1.835,-0.0000379
52.08,538.591,0.2720000,1.835,0.0001545
52.13,539.091,0.2720000,1.835,0.0000279
52.18,539.591,0.2720000,1.835,0.0000579
52.23,540.091,0.2720000,1.835,0.0000093
52.28,540.591,0.2720000,1.835,-0.0000586
52.33,541.091,0.2720000,1.835,-0.0000871
52.38,541.591,0.2720000,1.835,-0.0001228
52.43,542.091,0.2720000,1.835,-0.0001120
52.48,542.592,0.2720000,1.835,-0.0001578
52.53,543.092,0.2720000,1.835,-0.0000543
52.58,543.592,0.2720000,1.835,-0.0002143
52.63,544.092,0.2720000,1.835,-0.0000215
52.68,544.592,0.2720000,1.835,-0.0000172
52.73,545.092,0.2720000,1.835,-0.0003787
52.78,545.592,0.2720000,1.835,-0.0001130
52.83,546.092,0.2720000,1.835,-0.0000744
52.88,546.592,0.2720000,1.835,0.0000014
52.93,547.092,0.2720000,1.835,0.0001494
52.98,547.592,0.2720000,1.835,0.0002194
53.03,548.093,0.2720000,1.834,-0.0001186
53.08,548.593,0.2720000,1.834,-0.0003152
53.13,549.093,0.2720000,1.834,0.0000614
53.18,549.593,0.2720000,1.834,-0.0002857
53.23,550.093,0.2720000,1.834,-0.0005367
53.28,550.593,0.2720000,1.834,-0.0000508
53.33,551.093,0.2720000,1.834,-0.0002860
53.38,551.593,0.2720000,1.834,0.0000551
53.43,552.093,0.2720000,1.834,-0.0001402
53.48,552.593,0.2720000,1.834,-0.0002797
53.53,553.093,0.2720000,1.833,-0.0004704
53.58,553.593,0.2720000,1.833,-0.0001660
53.63,554.094,0.2720000,1.833,-0.0002969
53.68,554.594,0.2720000,1.833,-0.0003485
53.73,555.094,0.2720000,1.833,-0.0002678
53.78,555.594,0.2720000,1.833,-0.0000950
53.83,556.094,0.2720000,1.832,-0.0003503
53.88,556.594,0.2720000,1.832,-0.0003217
53.93,557.094,0.2720000,1.832,-0.0004347
53.98,557.594,0.2720000,1.832,-0.0001016
54.03,558.094,0.2710000,1.832,-0.0002428
54.08,558.594,0.2710000,1.832,-0.0002465
54.13,559.094,0.2710000,1.831,-0.0003854
54.18,559.595,0.2710000,1.831,-0.0002378
54.23,560.095,0.2710000,1.831,-0.0002910
54.28,560.595,0.2710000,1.831,-0.0007243
54.33,561.095,0.2710000,1.831,-0.0007813
54.38,561.595,0.2710000,1.83,-0.0006990
54.43,562.095,0.2710000,1.83,-0.0007669
54.48,562.595,0.2710000,1.83,-0.0006246
54.53,563.095,0.2710000,1.829,-0.0006231
54.58,563.595,0.2710000,1.829,-0.0005008
54.63,564.095,0.2710000,1.829,-0.0007490
54.68,564.595,0.2710000,1.829,-0.0003196
54.73,565.096,0.2710000,1.828,-0.0002280
54.78,565.596,0.2710000,1.828,-0.0005912
54.83,566.096,0.2710000,1.828,-0.0004195
54.88,566.596,0.2710000,1.828,-0.0002155
54.93,567.096,0.2710000,1.827,-0.0005977
54.98,567.596,0.2710000,1.827,-0.0003689
55.03,568.096,0.2710000,1.827,-0.0006684
55.08,568.596,0.2710000,1.826,-0.0006489
55.13,569.096,0.2710000,1.826,-0.0004817
55.18,569.596,0.2710000,1.826,-0.0004331
55.23,570.096,0.2710000,1.826,-0.0003056
55.28,570.597,0.2710000,1.825,-0.0004902
55.33,571.097,0.2710000,1.825,-0.0003661
55.37,571.597,0.2710000,1.825,-0.0000150
55.42,572.097,0.2700000,1.825,-0.0001615
55.47,572.597,0.2700000,1.825,-0.0003624
55.52,573.097,0.2700000,1.825,-0.0003730
55.57,573.597,0.2700000,1.825,-0.0003459
55.62,574.097,0.2700000,1.824,-0.0005760
55.67,574.597,0.2700000,1.824,-0.0004795
55.72,575.097,0.2700000,1.824,-0.0003023
55.77,575.597,0.2700000,1.824,-0.0004321
55.82,576.098,0.2700000,1.823,-0.0002797
55.87,576.598,0.2700000,1.823,0.0000036
55.92,577.098,0.2700000,1.823,-0.0002082
55.97,577.598,0.2700000,1.823,-0.0001874
56.02,578.098,0.2700000,1.823,-0.0001972
56.07,578.598,0.2700000,1.823,-0.0004645
56.12,579.098,0.2700000,1.823,-0.0002219
56.17,579.598,0.2700000,1.823,-0.0001307
56.22,580.098,0.2700000,1.823,-0.0001592
56.27,580.598,0.2700000,1.822,-0.0003652
56.32,581.098,0.2700000,1.822,-0.0002103
56.37,581.598,0.2700000,1.822,-0.0001552
56.42,582.099,0.2700000,1.822,-0.0001309
56.47,582.599,0.2700000,1.822,-0.0004770
56.52,583.099,0.2700000,1.822,-0.0001498
56.57,583.599,0.2700000,1.822,-0.0002889
56.62,584.099,0.2700000,1.822,-0.0003611
56.67,584.599,0.2700000,1.821,-0.0000905
56.72,585.099,0.2700000,1.821,-0.0002193
56.77,585.599,0.2700000,1.821,-0.0000816
56.82,586.099,0.2700000,1.821,-0.0002808
56.87,586.599,0.2700000,1.821,-0.0000824
56.92,587.099,0.2700000,1.821,-0.0003620
56.97,587.6,0.2700000,1.821,-0.0000636
57.02,588.1,0.2700000,1.821,-0.0001223
57.07,588.6,0.2700000,1.82,-0.0002859
57.12,589.1,0.2700000,1.82,0.0001765
57.17,589.6,0.2700000,1.82,-0.0001930
57.21,590,0.2700000,1.82,0.0000172