File: R/rHDPE_App/app/www/Output/TGA/Condensed_Data/Resin4_0_.csv
1.07,30,13.66,100.03,0.0019286
1.13,30.5001,13.66,100.031,0.0049182
1.19,31.0002,13.66,100.031,0.0030836
1.24,31.5003,13.66,100.032,-0.0013468
1.3,32.0004,13.66,100.033,0.0041101
1.36,32.5004,13.661,100.034,-0.0012239
1.41,33.0005,13.661,100.035,0.0037485
1.47,33.5006,13.661,100.035,-0.0003022
1.52,34.0007,13.661,100.036,0.0035572
1.58,34.5008,13.661,100.037,-0.0009974
1.63,35.0009,13.661,100.038,0.0034739
1.68,35.501,13.661,100.038,-0.0000000
1.74,36.0011,13.661,100.039,0.0020208
1.79,36.5012,13.661,100.04,0.0008352
1.84,37.0013,13.661,100.04,0.0001470
1.9,37.5013,13.662,100.041,0.0026867
1.95,38.0014,13.662,100.042,0.0002437
2.01,38.5015,13.662,100.042,0.0009734
2.06,39.0016,13.662,100.043,0.0026719
2.11,39.5017,13.662,100.044,-0.0001939
2.16,40.0018,13.662,100.044,0.0010651
2.22,40.5019,13.662,100.045,0.0025623
2.27,41.002,13.662,100.046,0.0008691
2.32,41.5021,13.662,100.047,0.0010611
2.38,42.0021,13.662,100.047,0.0022154
2.43,42.5022,13.662,100.048,0.0012985
2.48,43.0023,13.663,100.049,0.0007201
2.53,43.5024,13.663,100.049,0.0012941
2.59,44.0025,13.663,100.05,0.0017700
2.64,44.5026,13.663,100.051,0.0009077
2.69,45.0027,13.663,100.052,0.0007636
2.74,45.5028,13.663,100.052,0.0023325
2.79,46.0029,13.663,100.053,0.0013305
2.84,46.5029,13.663,100.054,0.0010916
2.9,47.003,13.663,100.054,0.0009951
2.95,47.5031,13.663,100.055,0.0015614
3,48.0032,13.664,100.056,0.0020788
3.05,48.5033,13.664,100.056,0.0006606
3.1,49.0034,13.664,100.057,0.0011787
3.16,49.5035,13.664,100.058,0.0011305
3.21,50.0036,13.664,100.058,0.0016940
3.26,50.5037,13.664,100.059,0.0015508
3.31,51.0038,13.664,100.06,0.0012672
3.36,51.5038,13.664,100.06,0.0010316
3.41,52.0039,13.664,100.061,0.0010301
3.46,52.504,13.664,100.061,0.0013090
3.51,53.0041,13.664,100.062,0.0016345
3.56,53.5042,13.664,100.063,0.0014468
3.61,54.0043,13.665,100.063,0.0010258
3.67,54.5044,13.665,100.064,0.0009317
3.72,55.0045,13.665,100.065,0.0009309
3.77,55.5046,13.665,100.065,0.0012562
3.82,56.0046,13.665,100.066,0.0014411
3.87,56.5047,13.665,100.066,0.0012542
3.92,57.0048,13.665,100.067,0.0011603
3.97,57.5049,13.665,100.068,0.0010671
4.02,58.005,13.665,100.068,0.0011129
4.07,58.5051,13.665,100.069,0.0011579
4.12,59.0052,13.665,100.069,0.0014344
4.17,59.5053,13.665,100.07,0.0012487
4.22,60.0054,13.666,100.071,0.0007401
4.27,60.5054,13.666,100.071,0.0009251
4.33,61.0055,13.666,100.072,0.0010171
4.38,61.5056,13.666,100.072,0.0006927
4.43,62.0057,13.666,100.073,0.0007383
4.48,62.5058,13.666,100.073,0.0011531
4.53,63.0059,13.666,100.074,0.0009220
4.58,63.506,13.666,100.074,0.0010144
4.63,64.0061,13.666,100.075,0.0009680
4.68,64.5062,13.666,100.075,0.0011974
4.73,65.0063,13.666,100.076,0.0008747
4.78,65.5063,13.666,100.076,0.0009668
4.83,66.0064,13.666,100.077,0.0010582
4.88,66.5065,13.666,100.077,0.0007821
4.93,67.0066,13.666,100.077,0.0008280
4.98,67.5067,13.667,100.078,0.0008275
5.03,68.0068,13.667,100.078,0.0008273
5.08,68.5069,13.667,100.079,0.0009191
5.13,69.007,13.667,100.079,0.0010559
5.18,69.5071,13.667,100.08,0.0009641
5.23,70.0071,13.667,100.08,0.0009174
5.28,70.5072,13.667,100.081,0.0011007
5.33,71.0073,13.667,100.081,0.0006424
5.38,71.5074,13.667,100.082,0.0007801
5.43,72.0075,13.667,100.082,0.0004587
5.48,72.5076,13.667,100.082,0.0004125
5.53,73.0077,13.667,100.083,0.0008709
5.58,73.5078,13.667,100.083,0.0009168
5.63,74.0079,13.667,100.083,0.0009623
5.68,74.5079,13.667,100.084,0.0005500
5.73,75.008,13.667,100.084,0.0007335
5.78,75.5081,13.667,100.084,0.0005957
5.83,76.0082,13.667,100.085,0.0003207
5.88,76.5083,13.668,100.085,0.0005958
5.93,77.0084,13.668,100.085,0.0005500
5.98,77.5085,13.668,100.086,0.0007794
6.03,78.0086,13.668,100.086,0.0005498
6.08,78.5087,13.668,100.087,0.0006408
6.13,79.0088,13.668,100.087,0.0005488
6.18,79.5088,13.668,100.087,0.0004573
6.23,80.0089,13.668,100.087,0.0003659
6.28,80.509,13.668,100.088,0.0006861
6.33,81.0091,13.668,100.088,0.0009140
6.38,81.5092,13.668,100.088,0.0002286
6.43,82.0093,13.668,100.089,0.0005944
6.48,82.5094,13.668,100.089,0.0007778
6.53,83.0095,13.668,100.089,0.0007777
6.58,83.5096,13.668,100.09,0.0006864
6.63,84.0096,13.668,100.09,0.0006868
6.68,84.5097,13.668,100.09,0.0002290
6.73,85.0098,13.668,100.09,0.0007331
6.78,85.5099,13.668,100.091,0.0006871
6.83,86.01,13.668,100.091,0.0005949
6.88,86.5101,13.668,100.091,0.0003204
6.93,87.0102,13.668,100.091,0.0004576
6.98,87.5103,13.668,100.092,0.0007316
7.03,88.0104,13.668,100.092,0.0008223
7.08,88.5104,13.669,100.092,0.0004567
7.13,89.0105,13.669,100.093,0.0007312
7.18,89.5106,13.669,100.093,0.0004112
7.23,90.0107,13.669,100.093,0.0003198
7.28,90.5108,13.669,100.093,0.0005937
7.33,91.0109,13.669,100.094,0.0004568
7.38,91.511,13.669,100.094,0.0004114
7.43,92.0111,13.669,100.094,0.0004118
7.48,92.5112,13.669,100.094,0.0005492
7.53,93.0113,13.669,100.094,0.0003662
7.58,93.5113,13.669,100.094,0.0003204
7.63,94.0114,13.669,100.095,0.0007786
7.68,94.5115,13.669,100.095,0.0000000
7.73,95.0116,13.669,100.095,0.0001831
7.78,95.5117,13.669,100.095,0.0005491
7.83,96.0118,13.669,100.095,-0.0000000
7.88,96.5119,13.669,100.095,0.0000914
7.93,97.012,13.669,100.095,0.0002743
7.98,97.5121,13.669,100.095,0.0001830
8.03,98.0121,13.669,100.096,0.0001373
8.08,98.5122,13.669,100.096,0.0000915
8.13,99.0123,13.669,100.096,0.0002287
8.18,99.5124,13.669,100.096,-0.0000000
8.23,100.013,13.669,100.096,0.0000915
8.28,100.513,13.669,100.096,0.0001373
8.33,101.013,13.669,100.096,0.0003661
8.38,101.513,13.669,100.096,0.0001831
8.43,102.013,13.669,100.096,0.0002288
8.48,102.513,13.669,100.097,0.0001373
8.53,103.013,13.669,100.097,0.0003203
8.58,103.513,13.669,100.097,0.0001831
8.63,104.013,13.669,100.097,0.0000916
8.68,104.513,13.669,100.097,-0.0001373
8.73,105.013,13.669,100.097,-0.0000000
8.78,105.513,13.669,100.097,-0.0000000
8.83,106.014,13.669,100.097,-0.0001372
8.88,106.514,13.669,100.097,0.0000000
8.93,107.014,13.669,100.097,0.0000000
8.98,107.514,13.669,100.097,-0.0001372
9.03,108.014,13.669,100.097,0.0003662
9.08,108.514,13.669,100.097,0.0002289
9.13,109.014,13.669,100.097,-0.0000916
9.18,109.514,13.669,100.097,-0.0002290
9.23,110.014,13.669,100.097,0.0002291
9.28,110.514,13.669,100.097,0.0001374
9.33,111.014,13.669,100.097,0.0002290
9.38,111.515,13.669,100.097,-0.0003665
9.43,112.015,13.669,100.097,-0.0003205
9.48,112.515,13.669,100.097,0.0002749
9.53,113.015,13.669,100.097,0.0000000
9.58,113.515,13.669,100.097,-0.0000916
9.63,114.015,13.669,100.097,-0.0001831
9.68,114.515,13.669,100.097,0.0000000
9.73,115.015,13.669,100.097,0.0000458
9.78,115.515,13.669,100.097,0.0001372
9.83,116.015,13.669,100.097,0.0000000
9.88,116.515,13.669,100.097,-0.0001373
9.93,117.016,13.669,100.097,-0.0002289
9.98,117.516,13.669,100.096,-0.0000915
10.03,118.016,13.669,100.096,-0.0001372
10.08,118.516,13.669,100.096,-0.0000915
10.13,119.016,13.669,100.096,-0.0000916
10.18,119.516,13.669,100.096,-0.0004123
10.23,120.016,13.669,100.096,-0.0001375
10.28,120.516,13.669,100.096,-0.0002747
10.33,121.016,13.669,100.096,-0.0004578
10.38,121.516,13.669,100.096,-0.0004122
10.43,122.016,13.669,100.096,0.0000000
10.48,122.517,13.669,100.096,0.0000917
10.53,123.017,13.669,100.096,0.0003208
10.58,123.517,13.669,100.096,-0.0000915
10.63,124.017,13.669,100.096,-0.0001372
10.68,124.517,13.669,100.096,0.0000458
10.73,125.017,13.669,100.096,-0.0000458
10.78,125.517,13.669,100.096,0.0000000
10.83,126.017,13.669,100.096,-0.0002295
10.88,126.517,13.669,100.096,-0.0002753
10.93,127.017,13.669,100.096,-0.0001377
10.98,127.517,13.669,100.096,-0.0000918
11.03,128.018,13.669,100.096,-0.0000000
11.08,128.518,13.669,100.096,-0.0004131
11.13,129.018,13.669,100.095,-0.0003671
11.18,129.518,13.669,100.096,0.0003210
11.23,130.018,13.669,100.096,-0.0000458
11.28,130.518,13.669,100.096,0.0001375
11.33,131.018,13.669,100.096,0.0001834
11.38,131.518,13.669,100.096,0.0006424
11.43,132.018,13.669,100.096,0.0003214
11.48,132.518,13.669,100.096,0.0005051
11.53,133.018,13.669,100.097,0.0005969
11.58,133.518,13.669,100.097,0.0004132
11.63,134.019,13.669,100.097,0.0006418
11.68,134.519,13.669,100.097,0.0003664
11.73,135.019,13.669,100.098,0.0005955
11.78,135.519,13.669,100.098,0.0004583
11.83,136.019,13.669,100.098,0.0005501
11.88,136.519,13.669,100.098,0.0003207
11.93,137.019,13.669,100.099,0.0004581
11.98,137.519,13.669,100.099,0.0005498
12.03,138.019,13.669,100.099,0.0003666
12.08,138.519,13.669,100.099,0.0001375
12.13,139.019,13.669,100.099,0.0001832
12.18,139.52,13.669,100.099,0.0005029
12.23,140.02,13.669,100.1,-0.0001372
12.28,140.52,13.67,100.1,0.0002745
12.33,141.02,13.67,100.1,0.0000916
12.38,141.52,13.67,100.1,0.0000458
12.43,142.02,13.67,100.1,-0.0004574
12.48,142.52,13.669,100.099,-0.0001373
12.53,143.02,13.669,100.099,-0.0005034
12.58,143.52,13.669,100.099,-0.0005944
12.63,144.02,13.669,100.099,-0.0008678
12.68,144.52,13.669,100.098,-0.0005936
12.73,145.021,13.669,100.098,-0.0011854
12.78,145.521,13.669,100.097,-0.0013667
12.83,146.021,13.669,100.097,-0.0015487
12.88,146.521,13.669,100.096,-0.0013204
12.93,147.021,13.669,100.095,-0.0017744
12.98,147.521,13.669,100.094,-0.0021852
13.03,148.021,13.669,100.093,-0.0023209
13.08,148.521,13.668,100.092,-0.0022744
13.13,149.021,13.668,100.091,-0.0024135
13.18,149.521,13.668,100.089,-0.0026867
13.23,150.021,13.668,100.088,-0.0024113
13.28,150.522,13.668,100.087,-0.0020473
13.33,151.022,13.668,100.086,-0.0021864
13.38,151.522,13.667,100.085,-0.0020058
13.43,152.022,13.667,100.084,-0.0021453
13.48,152.522,13.667,100.083,-0.0017374
13.53,153.022,13.667,100.082,-0.0013732
13.58,153.522,13.667,100.081,-0.0012370
13.63,154.022,13.667,100.081,-0.0012832
13.68,154.522,13.667,100.08,-0.0011459
13.73,155.022,13.667,100.08,-0.0008251
13.78,155.522,13.667,100.079,-0.0009628
13.83,156.023,13.667,100.078,-0.0010555
13.88,156.523,13.667,100.078,-0.0008734
13.93,157.023,13.666,100.077,-0.0012425
13.98,157.523,13.666,100.077,-0.0008292
14.03,158.023,13.666,100.076,-0.0009217
14.08,158.523,13.666,100.076,-0.0009208
14.13,159.023,13.666,100.076,-0.0008282
14.18,159.523,13.666,100.075,-0.0011025
14.23,160.023,13.666,100.075,-0.0005052
14.28,160.523,13.666,100.074,-0.0008724
14.33,161.023,13.666,100.074,-0.0005506
14.38,161.523,13.666,100.074,-0.0010088
14.43,162.024,13.666,100.073,-0.0003210
14.48,162.524,13.666,100.073,-0.0004128
14.53,163.024,13.666,100.073,-0.0009180
14.58,163.524,13.666,100.072,-0.0004583
14.63,164.024,13.666,100.072,-0.0005048
14.68,164.524,13.666,100.072,-0.0008268
14.73,165.024,13.666,100.071,-0.0003675
14.78,165.524,13.666,100.071,-0.0006893
14.83,166.024,13.666,100.07,-0.0007351
14.88,166.524,13.665,100.07,-0.0006427
14.93,167.024,13.665,100.07,-0.0008251
14.98,167.525,13.665,100.069,-0.0010085
15.03,168.025,13.665,100.069,-0.0014207
15.08,168.525,13.665,100.068,-0.0010551
15.13,169.025,13.665,100.068,-0.0011468
15.18,169.525,13.665,100.067,-0.0011471
15.23,170.025,13.665,100.067,-0.0006880
15.28,170.525,13.665,100.067,-0.0011010
15.33,171.025,13.665,100.066,-0.0010084
15.38,171.525,13.665,100.066,-0.0009170
15.43,172.025,13.665,100.065,-0.0009166
15.48,172.525,13.665,100.065,-0.0009624
15.53,173.026,13.665,100.064,-0.0009628
15.58,173.526,13.665,100.064,-0.0009170
15.63,174.026,13.665,100.063,-0.0009171
15.68,174.526,13.664,100.063,-0.0005505
15.73,175.026,13.664,100.062,-0.0007795
15.78,175.526,13.664,100.062,-0.0010083
15.83,176.026,13.664,100.062,-0.0010992
15.88,176.526,13.664,100.061,-0.0005501
15.93,177.026,13.664,100.06,-0.0010081
15.98,177.526,13.664,100.06,-0.0011450
16.03,178.026,13.664,100.059,-0.0010529
16.08,178.527,13.664,100.059,-0.0010530
16.13,179.027,13.664,100.058,-0.0010528
16.18,179.527,13.664,100.058,-0.0012829
16.23,180.027,13.664,100.057,-0.0011457
16.28,180.527,13.664,100.057,-0.0012376
16.33,181.027,13.664,100.056,-0.0009172
16.38,181.527,13.664,100.056,-0.0012371
16.43,182.027,13.663,100.055,-0.0008249
16.48,182.527,13.663,100.055,-0.0009629
16.53,183.027,13.663,100.054,-0.0010071
16.58,183.527,13.663,100.054,-0.0010509
16.63,184.028,13.663,100.053,-0.0010959
16.68,184.528,13.663,100.053,-0.0014172
16.73,185.028,13.663,100.052,-0.0008704
16.78,185.528,13.663,100.051,-0.0013758
16.83,186.028,13.663,100.051,-0.0010547
16.88,186.528,13.663,100.05,-0.0013762
16.94,187.028,13.663,100.049,-0.0011468
16.99,187.528,13.663,100.049,-0.0016045
17.04,188.028,13.662,100.048,-0.0014201
17.09,188.528,13.662,100.047,-0.0014663
17.14,189.028,13.662,100.047,-0.0012380
17.19,189.528,13.662,100.046,-0.0015124
17.24,190.029,13.662,100.045,-0.0014201
17.29,190.529,13.662,100.045,-0.0016468
17.34,191.029,13.662,100.044,-0.0009147
17.39,191.529,13.662,100.043,-0.0013717
17.44,192.029,13.662,100.043,-0.0014178
17.49,192.529,13.662,100.042,-0.0011449
17.54,193.029,13.662,100.041,-0.0013767
17.59,193.529,13.661,100.041,-0.0009642
17.64,194.029,13.661,100.04,-0.0012852
17.69,194.529,13.661,100.039,-0.0015604
17.74,195.029,13.661,100.039,-0.0013750
17.79,195.53,13.661,100.038,-0.0015562
17.84,196.03,13.661,100.037,-0.0018312
17.89,196.53,13.661,100.036,-0.0016481
17.94,197.03,13.661,100.035,-0.0019676
17.99,197.53,13.661,100.035,-0.0018303
18.04,198.03,13.661,100.034,-0.0016490
18.09,198.53,13.66,100.033,-0.0016051
18.14,199.03,13.66,100.032,-0.0015593
18.19,199.53,13.66,100.031,-0.0019733
18.24,200.03,13.66,100.03,-0.0014227
18.29,200.53,13.66,100.03,-0.0016481
18.34,201.031,13.66,100.029,-0.0014625
18.39,201.531,13.66,100.028,-0.0017816
18.44,202.031,13.66,100.027,-0.0019199
18.49,202.531,13.659,100.026,-0.0016946
18.54,203.031,13.659,100.025,-0.0012374
18.59,203.531,13.659,100.025,-0.0017410
18.64,204.031,13.659,100.024,-0.0016511
18.69,204.531,13.659,100.023,-0.0020198
18.74,205.031,13.659,100.022,-0.0017914
18.79,205.531,13.659,100.021,-0.0016509
18.84,206.031,13.659,100.02,-0.0017379
18.89,206.532,13.659,100.02,-0.0021471
18.94,207.032,13.658,100.019,-0.0015989
18.99,207.532,13.658,100.018,-0.0020128
19.04,208.032,13.658,100.017,-0.0014672
19.09,208.532,13.658,100.016,-0.0017439
19.14,209.032,13.658,100.015,-0.0018342
19.19,209.532,13.658,100.014,-0.0018340
19.24,210.032,13.658,100.013,-0.0015592
19.29,210.532,13.658,100.012,-0.0016975
19.34,211.032,13.657,100.012,-0.0018347
19.39,211.532,13.657,100.011,-0.0018809
19.44,212.033,13.657,100.01,-0.0017423
19.49,212.533,13.657,100.009,-0.0020148
19.54,213.033,13.657,100.008,-0.0019701
19.59,213.533,13.657,100.007,-0.0020152
19.64,214.033,13.657,100.006,-0.0020614
19.69,214.533,13.657,100.005,-0.0021501
19.74,215.033,13.656,100.004,-0.0020554
19.79,215.533,13.656,100.003,-0.0023313
19.84,216.033,13.656,100.002,-0.0017836
19.89,216.533,13.656,100.001,-0.0020595
19.94,217.033,13.656,100,-0.0019234
19.99,217.533,13.656,99.999,-0.0018354
20.04,218.034,13.656,99.998,-0.0018837
20.09,218.534,13.655,99.997,-0.0017898
20.14,219.034,13.655,99.996,-0.0018790
20.19,219.534,13.655,99.995,-0.0018739
20.24,220.034,13.655,99.994,-0.0021481
20.29,220.534,13.655,99.993,-0.0019236
20.34,221.034,13.655,99.992,-0.0022950
20.39,221.534,13.655,99.991,-0.0018831
20.44,222.034,13.655,99.99,-0.0019254
20.49,222.534,13.654,99.989,-0.0022467
20.54,223.034,13.654,99.988,-0.0021550
20.59,223.535,13.654,99.987,-0.0020202
20.64,224.035,13.654,99.986,-0.0020652
20.69,224.535,13.654,99.985,-0.0022460
20.74,225.035,13.654,99.984,-0.0021059
20.79,225.535,13.654,99.983,-0.0021052
20.84,226.035,13.653,99.982,-0.0021998
20.89,226.535,13.653,99.98,-0.0024294
20.94,227.035,13.653,99.979,-0.0017869
20.99,227.535,13.653,99.978,-0.0022881
21.04,228.035,13.653,99.977,-0.0023309
21.09,228.535,13.653,99.976,-0.0023294
21.14,229.036,13.653,99.975,-0.0020570
21.19,229.536,13.652,99.974,-0.0024234
21.24,230.036,13.652,99.973,-0.0022422
21.29,230.536,13.652,99.972,-0.0022440
21.34,231.036,13.652,99.971,-0.0019692
21.39,231.536,13.652,99.97,-0.0022436
21.44,232.036,13.652,99.969,-0.0016955
21.49,232.536,13.651,99.968,-0.0021568
21.54,233.036,13.651,99.966,-0.0021569
21.59,233.536,13.651,99.965,-0.0022487
21.64,234.036,13.651,99.964,-0.0019725
21.69,234.537,13.651,99.963,-0.0022460
21.74,235.037,13.651,99.962,-0.0022867
21.79,235.537,13.651,99.961,-0.0021944
21.84,236.037,13.65,99.96,-0.0024234
21.89,236.537,13.65,99.959,-0.0024680
21.94,237.037,13.65,99.958,-0.0023279
21.99,237.537,13.65,99.956,-0.0021481
22.04,238.037,13.65,99.955,-0.0024267
22.09,238.537,13.65,99.954,-0.0024290
22.14,239.037,13.649,99.953,-0.0025660
22.19,239.537,13.649,99.952,-0.0021550
22.24,240.038,13.649,99.95,-0.0024319
22.29,240.538,13.649,99.949,-0.0023405
22.34,241.038,13.649,99.948,-0.0020174
22.39,241.538,13.649,99.947,-0.0020156
22.44,242.038,13.648,99.946,-0.0020159
22.49,242.538,13.648,99.945,-0.0022463
22.54,243.038,13.648,99.943,-0.0026574
22.59,243.538,13.648,99.942,-0.0021998
22.64,244.038,13.648,99.941,-0.0025653
22.69,244.538,13.648,99.94,-0.0027485
22.74,245.038,13.648,99.939,-0.0023836
22.79,245.538,13.647,99.937,-0.0025659
22.84,246.039,13.647,99.936,-0.0021514
22.89,246.539,13.647,99.935,-0.0026983
22.94,247.039,13.647,99.934,-0.0021494
22.99,247.539,13.647,99.932,-0.0026063
23.04,248.039,13.647,99.931,-0.0022867
23.09,248.539,13.646,99.93,-0.0024223
23.14,249.039,13.646,99.929,-0.0027000
23.19,249.539,13.646,99.928,-0.0022384
23.24,250.039,13.646,99.926,-0.0027462
23.29,250.539,13.646,99.925,-0.0021573
23.34,251.039,13.645,99.924,-0.0027129
23.39,251.54,13.645,99.922,-0.0027579
23.44,252.04,13.645,99.921,-0.0025241
23.49,252.54,13.645,99.92,-0.0024755
23.54,253.04,13.645,99.918,-0.0023840
23.59,253.54,13.645,99.917,-0.0027964
23.64,254.04,13.644,99.916,-0.0028375
23.69,254.54,13.644,99.914,-0.0030220
23.74,255.04,13.644,99.913,-0.0024712
23.79,255.54,13.644,99.912,-0.0024709
23.84,256.04,13.644,99.91,-0.0029751
23.89,256.54,13.643,99.909,-0.0027488
23.94,257.041,13.643,99.907,-0.0029315
23.99,257.541,13.643,99.906,-0.0026537
24.04,258.041,13.643,99.904,-0.0027864
24.09,258.541,13.643,99.903,-0.0026508
24.14,259.041,13.642,99.902,-0.0028830
24.19,259.541,13.642,99.9,-0.0031611
24.24,260.041,13.642,99.899,-0.0032110
24.29,260.541,13.642,99.897,-0.0029800
24.34,261.041,13.642,99.896,-0.0028899
24.39,261.541,13.641,99.894,-0.0031193
24.44,262.041,13.641,99.893,-0.0029358
24.49,262.542,13.641,99.891,-0.0027497
24.54,263.042,13.641,99.89,-0.0030678
24.59,263.542,13.641,99.888,-0.0031107
24.64,264.042,13.64,99.887,-0.0030633
24.69,264.542,13.64,99.885,-0.0032925
24.74,265.042,13.64,99.883,-0.0033852
24.79,265.542,13.64,99.882,-0.0030203
24.84,266.042,13.64,99.88,-0.0033455
24.89,266.542,13.639,99.879,-0.0030264
24.94,267.042,13.639,99.877,-0.0029358
24.99,267.542,13.639,99.876,-0.0031164
25.04,268.043,13.639,99.874,-0.0032998
25.09,268.543,13.638,99.872,-0.0034390
25.14,269.043,13.638,99.871,-0.0033468
25.19,269.543,13.638,99.869,-0.0033456
25.24,270.043,13.638,99.867,-0.0035688
25.29,270.543,13.638,99.865,-0.0034322
25.34,271.043,13.637,99.864,-0.0034799
25.39,271.543,13.637,99.862,-0.0037108
25.44,272.043,13.637,99.86,-0.0035309
25.49,272.543,13.637,99.858,-0.0037143
25.54,273.043,13.636,99.856,-0.0038004
25.59,273.543,13.636,99.855,-0.0035728
25.64,274.044,13.636,99.853,-0.0041186
25.69,274.544,13.636,99.851,-0.0039356
25.74,275.044,13.635,99.849,-0.0037498
25.79,275.544,13.635,99.847,-0.0035237
25.84,276.044,13.635,99.845,-0.0036630
25.89,276.544,13.634,99.843,-0.0036205
25.94,277.044,13.634,99.841,-0.0038532
25.99,277.544,13.634,99.839,-0.0038045
26.04,278.044,13.634,99.837,-0.0042606
26.09,278.544,13.633,99.835,-0.0043522
26.14,279.044,13.633,99.833,-0.0044414
26.19,279.545,13.633,99.831,-0.0045305
26.24,280.045,13.633,99.829,-0.0043016
26.29,280.545,13.632,99.827,-0.0041186
26.34,281.045,13.632,99.825,-0.0044872
26.39,281.545,13.632,99.822,-0.0043996
26.44,282.045,13.631,99.82,-0.0044954
26.49,282.545,13.631,99.818,-0.0048607
26.54,283.045,13.631,99.816,-0.0045830
26.59,283.545,13.63,99.813,-0.0044896
26.64,284.045,13.63,99.811,-0.0047144
26.69,284.545,13.63,99.809,-0.0048077
26.74,285.046,13.629,99.807,-0.0048094
26.79,285.546,13.629,99.804,-0.0047663
26.84,286.046,13.629,99.802,-0.0050393
26.89,286.546,13.628,99.799,-0.0052245
26.94,287.046,13.628,99.797,-0.0053182
26.99,287.546,13.628,99.794,-0.0050844
27.04,288.046,13.627,99.792,-0.0048429
27.09,288.546,13.627,99.789,-0.0048384
27.14,289.046,13.627,99.787,-0.0051673
27.19,289.546,13.626,99.784,-0.0051301
27.24,290.046,13.626,99.781,-0.0055015
27.29,290.547,13.626,99.779,-0.0056391
27.34,291.047,13.625,99.776,-0.0058640
27.39,291.547,13.625,99.773,-0.0056339
27.44,292.047,13.625,99.77,-0.0055352
27.49,292.547,13.624,99.767,-0.0056735
27.54,293.047,13.624,99.765,-0.0055383
27.59,293.547,13.623,99.762,-0.0060037
27.64,294.047,13.623,99.759,-0.0057819
27.69,294.547,13.623,99.756,-0.0058748
27.74,295.047,13.622,99.753,-0.0058278
27.79,295.547,13.622,99.75,-0.0057234
27.84,296.048,13.621,99.747,-0.0063691
27.89,296.548,13.621,99.744,-0.0062902
27.94,297.048,13.62,99.741,-0.0061847
27.99,297.548,13.62,99.738,-0.0060352
28.04,298.048,13.62,99.735,-0.0064900
28.09,298.548,13.619,99.731,-0.0064021
28.14,299.048,13.619,99.728,-0.0064525
28.19,299.548,13.618,99.725,-0.0065934
28.24,300.048,13.618,99.722,-0.0067208
28.29,300.548,13.617,99.718,-0.0066826
28.34,301.048,13.617,99.715,-0.0064620
28.39,301.548,13.617,99.712,-0.0065500
28.44,302.049,13.616,99.708,-0.0068311
28.49,302.549,13.616,99.705,-0.0066514
28.54,303.049,13.615,99.701,-0.0074353
28.59,303.549,13.615,99.698,-0.0069674
28.64,304.049,13.614,99.694,-0.0071953
28.7,304.549,13.614,99.691,-0.0075160
28.75,305.049,13.613,99.687,-0.0073287
28.8,305.549,13.613,99.684,-0.0068186
28.85,306.049,13.612,99.68,-0.0073193
28.9,306.549,13.612,99.676,-0.0073219
28.95,307.049,13.611,99.673,-0.0072278
28.99,307.55,13.611,99.669,-0.0074135
29.04,308.05,13.61,99.665,-0.0073718
29.1,308.55,13.61,99.662,-0.0075591
29.15,309.05,13.609,99.658,-0.0074634
29.2,309.55,13.609,99.654,-0.0075550
29.25,310.05,13.608,99.65,-0.0077381
29.3,310.55,13.608,99.646,-0.0076563
29.35,311.05,13.607,99.643,-0.0076493
29.4,311.55,13.607,99.639,-0.0075050
29.45,312.05,13.606,99.635,-0.0079169
29.5,312.55,13.606,99.631,-0.0080026
29.55,313.051,13.605,99.627,-0.0080866
29.6,313.551,13.604,99.623,-0.0078611
29.65,314.051,13.604,99.619,-0.0081044
29.7,314.551,13.603,99.615,-0.0081073
29.75,315.051,13.603,99.611,-0.0080172
29.8,315.551,13.602,99.607,-0.0080689
29.85,316.051,13.602,99.603,-0.0082110
29.9,316.551,13.601,99.599,-0.0083991
29.95,317.051,13.601,99.594,-0.0082156
30,317.551,13.6,99.59,-0.0085733
30.05,318.051,13.599,99.586,-0.0082906
30.1,318.552,13.599,99.582,-0.0082845
30.15,319.052,13.598,99.578,-0.0084311
30.2,319.552,13.598,99.574,-0.0083379
30.25,320.052,13.597,99.57,-0.0083486
30.3,320.552,13.597,99.565,-0.0086665
30.35,321.052,13.596,99.561,-0.0085243
30.4,321.552,13.595,99.557,-0.0086128
30.45,322.052,13.595,99.552,-0.0088322
30.5,322.552,13.594,99.548,-0.0086128
30.55,323.052,13.594,99.544,-0.0084707
30.6,323.552,13.593,99.539,-0.0089695
30.65,324.053,13.592,99.535,-0.0089171
30.7,324.553,13.592,99.53,-0.0089711
30.75,325.053,13.591,99.526,-0.0087912
30.8,325.553,13.591,99.522,-0.0089286
30.85,326.053,13.59,99.517,-0.0088419
30.9,326.553,13.589,99.513,-0.0085623
30.95,327.053,13.589,99.508,-0.0087342
31,327.553,13.588,99.504,-0.0085466
31.05,328.053,13.588,99.5,-0.0087703
31.1,328.553,13.587,99.495,-0.0089237
31.15,329.053,13.586,99.491,-0.0086443
31.2,329.553,13.586,99.486,-0.0090951
31.25,330.054,13.585,99.482,-0.0088698
31.3,330.554,13.585,99.477,-0.0092067
31.35,331.054,13.584,99.473,-0.0090826
31.4,331.554,13.583,99.468,-0.0090400
31.45,332.054,13.583,99.464,-0.0085780
31.5,332.554,13.582,99.459,-0.0087534
31.55,333.054,13.581,99.455,-0.0091659
31.6,333.554,13.581,99.451,-0.0088893
31.65,334.054,13.58,99.446,-0.0085749
31.7,334.554,13.58,99.442,-0.0088025
31.75,335.054,13.579,99.438,-0.0083868
31.8,335.555,13.579,99.433,-0.0085560
31.85,336.055,13.578,99.429,-0.0086333
31.9,336.555,13.577,99.425,-0.0084352
31.95,337.055,13.577,99.42,-0.0088585
32,337.555,13.576,99.416,-0.0085118
32.05,338.055,13.576,99.412,-0.0087550
32.1,338.555,13.575,99.407,-0.0087124
32.15,339.055,13.574,99.403,-0.0086286
32.2,339.555,13.574,99.399,-0.0084784
32.25,340.055,13.573,99.395,-0.0086002
32.3,340.555,13.573,99.39,-0.0081353
32.35,341.056,13.572,99.386,-0.0083181
32.4,341.556,13.572,99.382,-0.0085056
32.45,342.056,13.571,99.378,-0.0081015
32.5,342.556,13.57,99.374,-0.0082463
32.55,343.056,13.57,99.37,-0.0083486
32.6,343.556,13.569,99.366,-0.0079890
32.65,344.056,13.569,99.362,-0.0079358
32.7,344.556,13.568,99.358,-0.0076007
32.75,345.056,13.568,99.354,-0.0081397
32.8,345.556,13.567,99.35,-0.0077268
32.85,346.056,13.567,99.346,-0.0077381
32.9,346.557,13.566,99.342,-0.0079212
32.95,347.057,13.566,99.339,-0.0073745
33,347.557,13.565,99.335,-0.0078311
33.05,348.057,13.565,99.331,-0.0073624
33.1,348.557,13.564,99.327,-0.0073623
33.15,349.057,13.564,99.324,-0.0073193
33.2,349.557,13.563,99.32,-0.0070577
33.25,350.057,13.563,99.317,-0.0071966
33.3,350.557,13.562,99.313,-0.0072437
33.35,351.057,13.562,99.31,-0.0068186
33.4,351.557,13.561,99.306,-0.0068124
33.45,352.058,13.561,99.303,-0.0067148
33.5,352.558,13.56,99.299,-0.0067271
33.55,353.058,13.56,99.296,-0.0068299
33.6,353.558,13.559,99.292,-0.0070642
33.65,354.058,13.559,99.289,-0.0069814
33.7,354.558,13.558,99.285,-0.0066428
33.75,355.058,13.558,99.282,-0.0069927
33.8,355.558,13.557,99.279,-0.0068061
33.85,356.058,13.557,99.275,-0.0068036
33.9,356.558,13.556,99.272,-0.0066704
33.95,357.058,13.556,99.268,-0.0068593
34,357.558,13.556,99.265,-0.0067370
34.05,358.059,13.555,99.261,-0.0066477
34.1,358.559,13.555,99.258,-0.0071520
34.15,359.059,13.554,99.254,-0.0069674
34.2,359.559,13.554,99.251,-0.0070107
34.25,360.059,13.553,99.247,-0.0074244
34.3,360.559,13.553,99.244,-0.0070971
34.35,361.059,13.552,99.24,-0.0070971
34.4,361.559,13.552,99.237,-0.0068261
34.45,362.059,13.551,99.233,-0.0071494
34.5,362.559,13.551,99.23,-0.0070603
34.55,363.059,13.55,99.226,-0.0070055
34.6,363.56,13.55,99.222,-0.0073556
34.65,364.06,13.549,99.219,-0.0072172
34.7,364.56,13.549,99.215,-0.0079068
34.75,365.06,13.548,99.211,-0.0077282
34.8,365.56,13.548,99.207,-0.0076396
34.85,366.06,13.547,99.204,-0.0078354
34.9,366.56,13.547,99.2,-0.0077424
34.95,367.06,13.546,99.196,-0.0077423
35,367.56,13.546,99.192,-0.0078855
35.05,368.06,13.545,99.188,-0.0078798
35.1,368.56,13.544,99.184,-0.0077910
35.15,369.061,13.544,99.18,-0.0082065
35.2,369.561,13.543,99.175,-0.0083379
35.25,370.061,13.543,99.171,-0.0082448
35.3,370.561,13.542,99.167,-0.0082800
35.35,371.061,13.542,99.163,-0.0085056
35.4,371.561,13.541,99.158,-0.0089172
35.45,372.061,13.54,99.154,-0.0090152
35.5,372.561,13.54,99.149,-0.0091508
35.55,373.061,13.539,99.145,-0.0092423
35.6,373.561,13.538,99.14,-0.0092389
35.65,374.061,13.538,99.136,-0.0094521
35.7,374.562,13.537,99.131,-0.0099580
35.75,375.062,13.537,99.126,-0.0098811
35.8,375.562,13.536,99.121,-0.0101741
35.85,376.062,13.535,99.116,-0.0103117
35.9,376.562,13.534,99.11,-0.0107281
35.95,377.062,13.534,99.105,-0.0108755
36,377.562,13.533,99.099,-0.0109135
36.05,378.062,13.532,99.094,-0.0113198
36.1,378.562,13.531,99.088,-0.0117523
36.15,379.062,13.531,99.082,-0.0118786
36.2,379.562,13.53,99.076,-0.0122876
36.25,380.063,13.529,99.07,-0.0125183
36.3,380.563,13.528,99.064,-0.0129650
36.35,381.063,13.527,99.057,-0.0129650
36.4,381.563,13.526,99.051,-0.0133700
36.45,382.063,13.525,99.044,-0.0131363
36.5,382.563,13.524,99.037,-0.0138278
36.55,383.063,13.523,99.03,-0.0137871
36.6,383.563,13.523,99.023,-0.0140645
36.65,384.063,13.522,99.016,-0.0145875
36.7,384.563,13.521,99.009,-0.0148591
36.75,385.063,13.519,99.001,-0.0151280
36.8,385.563,13.518,98.993,-0.0158135
36.85,386.064,13.517,98.985,-0.0161482
36.9,386.564,13.516,98.977,-0.0166910
36.95,387.064,13.515,98.969,-0.0168647
37,387.564,13.514,98.96,-0.0171798
37.05,388.064,13.513,98.951,-0.0179259
37.1,388.564,13.511,98.943,-0.0183553
37.15,389.064,13.51,98.933,-0.0183486
37.2,389.564,13.509,98.924,-0.0189345
37.25,390.064,13.508,98.915,-0.0192555
37.3,390.564,13.506,98.905,-0.0194597
37.35,391.064,13.505,98.895,-0.0199836
37.4,391.565,13.504,98.885,-0.0204268
37.45,392.065,13.502,98.875,-0.0210042
37.5,392.565,13.501,98.864,-0.0216697
37.55,393.065,13.499,98.853,-0.0221409
37.6,393.565,13.498,98.842,-0.0228983
37.65,394.065,13.496,98.83,-0.0232665
37.7,394.565,13.495,98.818,-0.0238839
37.75,395.065,13.493,98.806,-0.0245035
37.8,395.565,13.491,98.794,-0.0252526
37.85,396.065,13.489,98.781,-0.0256645
37.9,396.565,13.488,98.768,-0.0261905
37.95,397.066,13.486,98.754,-0.0270209
38,397.566,13.484,98.741,-0.0275396
38.05,398.066,13.482,98.727,-0.0284764
38.1,398.566,13.48,98.713,-0.0294978
38.15,399.066,13.478,98.698,-0.0303293
38.2,399.566,13.476,98.682,-0.0311813
38.25,400.066,13.474,98.667,-0.0317191
38.3,400.566,13.472,98.651,-0.0326246
38.35,401.066,13.469,98.634,-0.0333791
38.4,401.566,13.467,98.617,-0.0342534
38.45,402.066,13.465,98.6,-0.0352100
38.5,402.567,13.462,98.582,-0.0361468
38.55,403.067,13.46,98.564,-0.0370710
38.6,403.567,13.457,98.545,-0.0377885
38.65,404.067,13.455,98.526,-0.0387324
38.7,404.567,13.452,98.507,-0.0398848
38.75,405.067,13.449,98.486,-0.0407743
38.8,405.567,13.446,98.466,-0.0417582
38.85,406.067,13.443,98.444,-0.0429945
38.9,406.567,13.44,98.423,-0.0444597
38.95,407.067,13.437,98.4,-0.0455460
39,407.567,13.434,98.377,-0.0467349
39.05,408.068,13.431,98.353,-0.0477148
39.1,408.568,13.428,98.329,-0.0493872
39.15,409.068,13.424,98.304,-0.0509598
39.2,409.568,13.421,98.278,-0.0522640
39.25,410.068,13.417,98.252,-0.0540219
39.3,410.568,13.413,98.224,-0.0554945
39.35,411.068,13.41,98.196,-0.0567516
39.4,411.568,13.406,98.167,-0.0591200
39.45,412.068,13.402,98.137,-0.0607798
39.5,412.568,13.397,98.107,-0.0627410
39.55,413.068,13.393,98.075,-0.0644954
39.6,413.568,13.389,98.042,-0.0667491
39.65,414.069,13.384,98.008,-0.0680903
39.7,414.569,13.379,97.974,-0.0703581
39.75,415.069,13.374,97.938,-0.0725836
39.8,415.569,13.369,97.901,-0.0748445
39.85,416.069,13.364,97.863,-0.0774060
39.9,416.569,13.359,97.823,-0.0817605
39.95,417.069,13.353,97.781,-0.0848443
40,417.569,13.347,97.736,-0.0951097
40.05,418.069,13.34,97.687,-0.1038820
40.1,418.569,13.333,97.635,-0.1105120
40.15,419.069,13.326,97.581,-0.1126600
40.2,419.57,13.318,97.525,-0.1173490
40.25,420.07,13.31,97.464,-0.1212730
40.3,420.57,13.301,97.403,-0.1273600
40.35,421.07,13.292,97.339,-0.1306620
40.4,421.57,13.284,97.273,-0.1365880
40.45,422.07,13.274,97.203,-0.1378090
40.5,422.57,13.264,97.133,-0.1445060
40.55,423.07,13.255,97.061,-0.1509150
40.6,423.57,13.244,96.986,-0.1560390
40.65,424.07,13.234,96.909,-0.1590080
40.7,424.57,13.223,96.829,-0.1628400
40.75,425.071,13.211,96.746,-0.1684050
40.8,425.571,13.2,96.662,-0.1724860
40.85,426.071,13.188,96.574,-0.1796620
40.9,426.571,13.176,96.483,-0.1818680
40.95,427.071,13.163,96.388,-0.1981020
41,427.571,13.149,96.286,-0.2004300
41.05,428.071,13.135,96.183,-0.2077540
41.1,428.571,13.12,96.077,-0.2127040
41.15,429.071,13.106,95.971,-0.2270110
41.2,429.571,13.09,95.857,-0.2353800
41.25,430.071,13.074,95.739,-0.2387070
41.3,430.572,13.057,95.616,-0.2484000
41.35,431.072,13.04,95.489,-0.2560840
41.4,431.572,13.022,95.357,-0.2648160
41.45,432.072,13.003,95.22,-0.2832620
41.5,432.572,12.984,95.078,-0.2898390
41.55,433.072,12.964,94.93,-0.2978440
41.6,433.572,12.943,94.776,-0.3100370
41.65,434.072,12.921,94.616,-0.3266480
41.7,434.572,12.898,94.451,-0.3384160
41.75,435.072,12.874,94.277,-0.3524330
41.8,435.572,12.85,94.097,-0.3689020
41.85,436.073,12.824,93.909,-0.3860780
41.9,436.573,12.798,93.715,-0.3966950
41.95,437.073,12.77,93.514,-0.4210550
42,437.573,12.742,93.311,-0.4166060
42.05,438.073,12.714,93.102,-0.4294040
42.1,438.573,12.683,92.876,-0.4520460
42.15,439.073,12.652,92.648,-0.4726860
42.2,439.573,12.619,92.407,-0.5081500
42.25,440.073,12.584,92.153,-0.5237970
42.3,440.573,12.548,91.884,-0.5551450
42.35,441.073,12.509,91.603,-0.5662460
42.4,441.573,12.471,91.321,-0.5939610
42.45,442.074,12.429,91.014,-0.6229720
42.5,442.574,12.385,90.691,-0.6415600
42.55,443.074,12.339,90.359,-0.6552460
42.6,443.574,12.293,90.016,-0.6868760
42.65,444.074,12.244,89.66,-0.7329620
42.7,444.574,12.194,89.294,-0.7485300
42.75,445.074,12.142,88.914,-0.8075690
42.8,445.574,12.088,88.519,-0.7954630
42.85,446.074,12.031,88.099,-0.8948030
42.9,446.574,11.969,87.644,-0.9519000
42.95,447.074,11.902,87.159,-1.00174
43,447.575,11.831,86.639,-1.03821
43.05,448.075,11.76,86.117,-1.07305
43.1,448.575,11.686,85.572,-1.09679
43.15,449.075,11.614,85.046,-1.03554
43.2,449.575,11.542,84.519,-1.11104
43.25,450.075,11.462,83.935,-1.19752
43.3,450.575,11.376,83.304,-1.3053
43.35,451.075,11.286,82.642,-1.32376
43.4,451.575,11.192,81.955,-1.41214
43.45,452.075,11.097,81.262,-1.35652
43.5,452.575,11.001,80.559,-1.43523
43.55,453.076,10.899,79.81,-1.5432
43.6,453.576,10.791,79.018,-1.59417
43.65,454.076,10.682,78.221,-1.61694
43.7,454.576,10.568,77.388,-1.7236
43.75,455.076,10.445,76.487,-1.77098
43.8,455.576,10.324,75.598,-1.81295
43.85,456.076,10.202,74.704,-1.91965
43.9,456.576,10.068,73.724,-1.99434
43.95,457.076,9.93,72.716,-2.03659
44,457.576,9.794,71.716,-2.02585
44.05,458.076,9.649,70.662,-2.17675
44.1,458.577,9.499,69.563,-2.25363
44.15,459.077,9.338,68.378,-2.36287
44.2,459.577,9.177,67.202,-2.36143
44.25,460.077,9.012,65.995,-2.4896
44.3,460.577,8.844,64.76,-2.50073
44.35,461.077,8.67,63.491,-2.56445
44.4,461.577,8.488,62.158,-2.69961
44.45,462.077,8.304,60.809,-2.76245
44.5,462.577,8.116,59.435,-2.76479
44.55,463.077,7.927,58.045,-2.95398
44.6,463.577,7.725,56.568,-2.97527
44.65,464.078,7.519,55.058,-3.05401
44.7,464.578,7.309,53.525,-3.14161
44.75,465.078,7.096,51.964,-3.12318
44.8,465.578,6.867,50.287,-3.31963
44.85,466.078,6.639,48.616,-3.43778
44.9,466.578,6.414,46.968,-3.27959
44.95,467.078,6.187,45.305,-3.34444
45,467.578,5.953,43.593,-3.45606
45.05,468.078,5.716,41.859,-3.44395
45.1,468.578,5.478,40.112,-3.51017
45.15,469.078,5.235,38.334,-3.52406
45.2,469.578,4.993,36.564,-3.53989
45.25,470.079,4.759,34.852,-3.56979
45.3,470.579,4.515,33.064,-3.57802
45.35,471.079,4.271,31.274,-3.59745
45.4,471.579,4.027,29.487,-3.53904
45.45,472.079,3.786,27.721,-3.50837
45.5,472.579,3.54,25.921,-3.45806
45.55,473.079,3.323,24.336,-2.97902
45.6,473.579,3.116,22.821,-3.04735
45.65,474.079,2.908,21.296,-3.00877
45.7,474.579,2.71,19.845,-2.95014
45.75,475.079,2.511,18.388,-2.80802
45.8,475.58,2.32,16.987,-2.7085
45.85,476.08,2.137,15.649,-2.5816
45.9,476.58,1.97,14.424,-2.42051
45.95,477.08,1.807,13.234,-2.26828
46,477.58,1.656,12.124,-2.13021
46.05,478.08,1.515,11.091,-1.97633
46.1,478.58,1.384,10.137,-1.83794
46.15,479.08,1.265,9.264,-1.65273
46.2,479.58,1.16,8.496,-1.51668
46.25,480.08,1.061,7.771,-1.38061
46.3,480.58,0.9730000,7.124,-1.1919
46.35,481.081,0.8940000,6.549,-1.06607
46.4,481.581,0.8250000,6.045,-0.9202270
46.44,482.081,0.7680000,5.625,-0.7910870
46.49,482.581,0.7170000,5.253,-0.6880950
46.54,483.081,0.6750000,4.941,-0.5645330
46.59,483.581,0.6400000,4.683,-0.4642760
46.64,484.081,0.6110000,4.476,-0.3655500
46.69,484.581,0.5890000,4.31,-0.2925880
46.74,485.081,0.5710000,4.182,-0.2214570
46.79,485.581,0.5580000,4.086,-0.1605310
46.84,486.081,0.5480000,4.016,-0.1168200
46.89,486.582,0.5420000,3.968,-0.0798068
46.94,487.082,0.5380000,3.936,-0.0503441
46.99,487.582,0.5340000,3.913,-0.0473307
47.05,488.082,0.5310000,3.889,-0.0458142
47.1,488.582,0.5280000,3.868,-0.0414842
47.15,489.082,0.5260000,3.848,-0.0363192
47.2,489.582,0.5230000,3.832,-0.0309459
47.25,490.082,0.5210000,3.818,-0.0260182
47.3,490.582,0.5200000,3.806,-0.0214340
47.35,491.082,0.5180000,3.796,-0.0175605
47.4,491.582,0.5170000,3.788,-0.0145421
47.45,492.083,0.5160000,3.781,-0.0112586
47.5,492.583,0.5160000,3.776,-0.0090362
47.55,493.083,0.5150000,3.772,-0.0071277
47.6,493.583,0.5150000,3.769,-0.0059224
47.65,494.083,0.5140000,3.767,-0.0044623
47.7,494.583,0.5140000,3.765,-0.0031319
47.75,495.083,0.5140000,3.763,-0.0024819
47.8,495.583,0.5140000,3.762,-0.0021677
47.85,496.083,0.5140000,3.761,-0.0017282
47.9,496.583,0.5140000,3.76,-0.0012918
47.95,497.083,0.5130000,3.76,-0.0005318
48,497.583,0.5130000,3.76,-0.0006206
48.05,498.084,0.5130000,3.759,-0.0007158
48.1,498.584,0.5130000,3.759,-0.0006199
48.15,499.084,0.5130000,3.759,-0.0004649
48.2,499.584,0.5130000,3.759,-0.0000559
48.25,500.084,0.5130000,3.759,-0.0001895
48.3,500.584,0.5130000,3.759,-0.0000817
48.35,501.084,0.5130000,3.759,-0.0000745
48.4,501.584,0.5130000,3.758,-0.0006836
48.45,502.084,0.5130000,3.758,0.0001234
48.5,502.584,0.5130000,3.758,0.0000085
48.55,503.084,0.5130000,3.758,0.0003673
48.6,503.585,0.5130000,3.759,0.0002892
48.65,504.085,0.5130000,3.759,0.0000569
48.7,504.585,0.5130000,3.759,-0.0001222
48.75,505.085,0.5130000,3.759,0.0000511
48.8,505.585,0.5130000,3.759,0.0004334
48.85,506.085,0.5130000,3.759,0.0000740
48.9,506.585,0.5130000,3.759,-0.0000886
48.95,507.085,0.5130000,3.759,-0.0000659
49,507.585,0.5130000,3.759,0.0000057
49.05,508.085,0.5130000,3.759,0.0001020
49.1,508.585,0.5130000,3.759,0.0001449
49.15,509.086,0.5130000,3.759,0.0000874
49.2,509.586,0.5130000,3.759,0.0000401
49.25,510.086,0.5130000,3.759,0.0002187
49.3,510.586,0.5130000,3.759,-0.0000343
49.35,511.086,0.5130000,3.759,0.0001144
49.4,511.586,0.5130000,3.76,0.0003101
49.45,512.086,0.5130000,3.76,0.0001371
49.5,512.586,0.5130000,3.76,0.0004061
49.55,513.086,0.5130000,3.76,0.0001129
49.6,513.586,0.5130000,3.76,0.0001072
49.65,514.086,0.5130000,3.76,0.0003245
49.7,514.587,0.5130000,3.76,-0.0000099
49.75,515.087,0.5130000,3.76,-0.0000858
49.8,515.587,0.5130000,3.76,0.0001359
49.85,516.087,0.5130000,3.76,0.0005294
49.9,516.587,0.5130000,3.76,0.0000172
49.95,517.087,0.5130000,3.76,0.0000171
50,517.587,0.5130000,3.76,0.0003414
50.05,518.087,0.5130000,3.76,0.0000899
50.1,518.587,0.5130000,3.76,-0.0000287
50.15,519.087,0.5130000,3.76,0.0001478
50.2,519.587,0.5130000,3.76,0.0002210
50.25,520.088,0.5140000,3.76,0.0002910
50.3,520.588,0.5140000,3.76,0.0002392
50.35,521.088,0.5140000,3.761,-0.0000229
50.4,521.588,0.5140000,3.761,-0.0000328
50.45,522.088,0.5140000,3.761,-0.0000558
50.5,522.588,0.5140000,3.761,-0.0001028
50.55,523.088,0.5140000,3.761,0.0000415
50.6,523.588,0.5140000,3.761,0.0003458
50.65,524.088,0.5140000,3.761,0.0003359
50.7,524.588,0.5140000,3.761,0.0001202
50.75,525.088,0.5140000,3.761,0.0002602
50.8,525.588,0.5140000,3.761,-0.0000086
50.85,526.089,0.5140000,3.761,-0.0000372
50.9,526.589,0.5140000,3.761,-0.0000886
50.95,527.089,0.5140000,3.761,0.0003634
51,527.589,0.5140000,3.761,0.0000315
51.05,528.089,0.5140000,3.761,0.0000743
51.1,528.589,0.5140000,3.761,0.0001728
51.14,529.089,0.5140000,3.762,0.0000800
51.19,529.589,0.5140000,3.762,-0.0000943
51.24,530.089,0.5140000,3.762,0.0002145
51.29,530.589,0.5140000,3.762,0.0002874
51.34,531.089,0.5140000,3.762,-0.0000658
51.39,531.59,0.5140000,3.762,-0.0001316
51.44,532.09,0.5140000,3.762,0.0000672
51.49,532.59,0.5140000,3.762,0.0000943
51.54,533.09,0.5140000,3.762,-0.0000043
51.59,533.59,0.5140000,3.762,0.0000028
51.65,534.09,0.5140000,3.762,-0.0000286
51.7,534.59,0.5140000,3.762,-0.0000573
51.75,535.09,0.5140000,3.762,-0.0000330
51.8,535.59,0.5140000,3.762,0.0001032
51.85,536.09,0.5140000,3.762,0.0002435
51.9,536.59,0.5140000,3.762,0.0002942
51.95,537.091,0.5140000,3.762,0.0000157
52,537.591,0.5140000,3.762,0.0000415
52.05,538.091,0.5140000,3.762,-0.0000957
52.1,538.591,0.5140000,3.762,-0.0001828
52.15,539.091,0.5140000,3.762,-0.0001959
52.2,539.591,0.5140000,3.762,-0.0001316
52.25,540.091,0.5140000,3.762,-0.0000888
52.3,540.591,0.5140000,3.762,0.0000286
52.35,541.091,0.5140000,3.762,-0.0000257
52.4,541.591,0.5140000,3.762,-0.0000114
52.45,542.091,0.5140000,3.762,-0.0001216
52.5,542.592,0.5140000,3.762,-0.0001775
52.55,543.092,0.5140000,3.762,0.0001288
52.6,543.592,0.5140000,3.762,0.0000071
52.65,544.092,0.5140000,3.762,0.0000429
52.7,544.592,0.5140000,3.762,0.0002430
52.75,545.092,0.5140000,3.762,0.0000200
52.8,545.592,0.5140000,3.762,-0.0001229
52.85,546.092,0.5140000,3.762,-0.0000644
52.9,546.592,0.5140000,3.762,-0.0000788
52.95,547.092,0.5140000,3.762,0.0000645
53,547.592,0.5140000,3.762,-0.0000515
53.05,548.093,0.5140000,3.762,0.0000085
53.1,548.593,0.5140000,3.762,-0.0002235
53.14,549.093,0.5140000,3.762,0.0001456
53.19,549.593,0.5140000,3.762,-0.0000185
53.24,550.093,0.5140000,3.762,-0.0000472
53.29,550.593,0.5140000,3.762,-0.0001631
53.34,551.093,0.5140000,3.761,-0.0002549
53.39,551.593,0.5140000,3.761,-0.0001018
53.44,552.093,0.5140000,3.761,-0.0001679
53.5,552.593,0.5140000,3.761,-0.0002968
53.55,553.093,0.5140000,3.761,-0.0000001
53.6,553.593,0.5140000,3.761,-0.0003268
53.65,554.094,0.5140000,3.761,0.0002831
53.7,554.594,0.5140000,3.761,0.0002514
53.75,555.094,0.5140000,3.761,-0.0002298
53.79,555.594,0.5140000,3.761,-0.0000513
53.84,556.094,0.5140000,3.761,-0.0001671
53.89,556.594,0.5140000,3.761,-0.0003334
53.94,557.094,0.5140000,3.761,-0.0001157
53.99,557.594,0.5140000,3.761,-0.0003917
54.04,558.094,0.5140000,3.761,-0.0000558
54.09,558.594,0.5140000,3.761,-0.0003985
54.14,559.094,0.5140000,3.761,0.0000014
54.19,559.595,0.5140000,3.76,-0.0000543
54.24,560.095,0.5140000,3.76,0.0000157
54.29,560.595,0.5130000,3.76,0.0001001
54.34,561.095,0.5130000,3.76,-0.0000028
54.39,561.595,0.5130000,3.76,-0.0004414
54.44,562.095,0.5130000,3.76,-0.0003659
54.49,562.595,0.5130000,3.76,-0.0002858
54.54,563.095,0.5130000,3.76,0.0002059
54.59,563.595,0.5130000,3.76,-0.0005094
54.64,564.095,0.5130000,3.759,-0.0006675
54.69,564.595,0.5130000,3.759,-0.0001285
54.74,565.096,0.5130000,3.759,-0.0001602
54.79,565.596,0.5130000,3.759,-0.0003873
54.84,566.096,0.5130000,3.759,-0.0005426
54.89,566.596,0.5130000,3.759,-0.0003702
54.94,567.096,0.5130000,3.758,-0.0004092
54.99,567.596,0.5130000,3.758,-0.0005251
55.04,568.096,0.5130000,3.758,-0.0004162
55.09,568.596,0.5130000,3.757,-0.0009441
55.14,569.096,0.5130000,3.757,-0.0004827
55.19,569.596,0.5130000,3.757,-0.0004867
55.24,570.096,0.5130000,3.757,-0.0007984
55.29,570.597,0.5130000,3.756,-0.0008895
55.34,571.097,0.5130000,3.756,-0.0008104
55.39,571.597,0.5130000,3.755,-0.0009354
55.44,572.097,0.5130000,3.755,-0.0004708
55.49,572.597,0.5130000,3.755,-0.0007135
55.54,573.097,0.5130000,3.754,-0.0005774
55.59,573.597,0.5130000,3.754,-0.0008499
55.64,574.097,0.5130000,3.754,-0.0007506
55.69,574.597,0.5130000,3.753,-0.0005967
55.74,575.097,0.5130000,3.753,-0.0006198
55.79,575.597,0.5120000,3.753,-0.0009560
55.84,576.098,0.5120000,3.752,-0.0007480
55.89,576.598,0.5120000,3.752,-0.0007612
55.94,577.098,0.5120000,3.752,-0.0009554
55.99,577.598,0.5120000,3.751,-0.0007406
56.04,578.098,0.5120000,3.751,-0.0009987
56.09,578.598,0.5120000,3.75,-0.0008750
56.14,579.098,0.5120000,3.75,-0.0008084
56.19,579.598,0.5120000,3.749,-0.0009916
56.24,580.098,0.5120000,3.749,-0.0008229
56.29,580.598,0.5120000,3.749,-0.0007578
56.34,581.098,0.5120000,3.748,-0.0009905
56.39,581.598,0.5120000,3.748,-0.0009172
56.44,582.099,0.5120000,3.747,-0.0010534
56.49,582.599,0.5120000,3.747,-0.0008027
56.54,583.099,0.5120000,3.746,-0.0006957
56.59,583.599,0.5120000,3.746,-0.0009555
56.64,584.099,0.5110000,3.745,-0.0009455
56.69,584.599,0.5110000,3.745,-0.0008321
56.74,585.099,0.5110000,3.745,-0.0006353
56.79,585.599,0.5110000,3.744,-0.0010683
56.84,586.099,0.5110000,3.744,-0.0007669
56.89,586.599,0.5110000,3.743,-0.0007162
56.94,587.099,0.5110000,3.743,-0.0008333
56.99,587.6,0.5110000,3.743,-0.0005523
57.04,588.1,0.5110000,3.742,-0.0006790
57.09,588.6,0.5110000,3.742,-0.0004505
57.14,589.1,0.5110000,3.742,-0.0005470
57.19,589.6,0.5110000,3.741,-0.0005396
57.23,590,0.5110000,3.741,-0.0008106