File: R/rHDPE_App/app/www/Output/TGA/Condensed_Data/Resin18_1_.csv
0.6500000,30,9.749,100.033,0.0132524
0.7200000,30.5001,9.75,100.038,0.0005918
0.7900000,31.0002,9.75,100.042,0.0144629
0.8600000,31.5003,9.75,100.046,0.0001190
0.9200000,32.0004,9.751,100.048,0.0076540
0.9800000,32.5004,9.751,100.051,0.0083499
1.04,33.0005,9.751,100.053,0.0045004
1.1,33.5006,9.751,100.055,0.0002702
1.16,34.0007,9.752,100.057,0.0000528
1.22,34.5008,9.752,100.059,0.0075078
1.28,35.0009,9.752,100.06,0.0045664
1.33,35.501,9.752,100.062,0.0018501
1.39,36.0011,9.752,100.063,0.0063172
1.44,36.5012,9.752,100.064,-0.0001518
1.5,37.0013,9.752,100.065,0.0044172
1.55,37.5013,9.752,100.067,0.0000998
1.61,38.0014,9.753,100.068,0.0044211
1.66,38.5015,9.753,100.069,0.0014832
1.72,39.0016,9.753,100.07,0.0019207
1.77,39.5017,9.753,100.071,0.0032879
1.82,40.0018,9.753,100.072,-0.0001959
1.88,40.5019,9.753,100.073,0.0023434
1.93,41.002,9.753,100.074,0.0027277
1.98,41.5021,9.753,100.075,0.0005345
2.04,42.0021,9.753,100.076,0.0030066
2.09,42.5022,9.753,100.077,0.0033391
2.14,43.0023,9.754,100.078,0.0011109
2.19,43.5024,9.754,100.079,0.0028928
2.25,44.0025,9.754,100.08,0.0032732
2.3,44.5026,9.754,100.08,0.0007690
2.35,45.0027,9.754,100.081,0.0013924
2.41,45.5028,9.754,100.083,0.0029731
2.46,46.0029,9.754,100.084,0.0021080
2.51,46.5029,9.754,100.084,0.0014352
2.56,47.003,9.754,100.085,0.0016727
2.61,47.5031,9.754,100.086,0.0023856
2.66,48.0032,9.754,100.087,0.0013820
2.72,48.5033,9.755,100.088,0.0025225
2.77,49.0034,9.755,100.089,0.0029479
2.82,49.5035,9.755,100.09,0.0022794
2.87,50.0036,9.755,100.091,0.0016601
2.93,50.5037,9.755,100.092,0.0016107
2.98,51.0038,9.755,100.093,0.0021768
3.03,51.5038,9.755,100.094,0.0023152
3.08,52.0039,9.755,100.096,0.0017937
3.13,52.504,9.755,100.097,0.0020284
3.18,53.0041,9.756,100.098,0.0021678
3.24,53.5042,9.756,100.099,0.0025902
3.29,54.0043,9.756,100.1,0.0021637
3.34,54.5044,9.756,100.1,0.0016449
3.39,55.0045,9.756,100.101,0.0015956
3.44,55.5046,9.756,100.102,0.0017353
3.49,56.0046,9.756,100.103,0.0018279
3.54,56.5047,9.756,100.104,0.0018260
3.59,57.0048,9.756,100.105,0.0015440
3.64,57.5049,9.756,100.106,0.0014955
3.69,58.005,9.756,100.107,0.0019146
3.75,58.5051,9.757,100.108,0.0017723
3.8,59.0052,9.757,100.109,0.0016778
3.85,59.5053,9.757,100.11,0.0018164
3.9,60.0054,9.757,100.111,0.0011168
3.95,60.5054,9.757,100.111,0.0016742
4,61.0055,9.757,100.112,0.0016263
4.05,61.5056,9.757,100.113,0.0018569
4.1,62.0057,9.757,100.114,0.0011594
4.15,62.5058,9.757,100.115,0.0017152
4.2,63.0059,9.757,100.116,0.0015293
4.25,63.506,9.757,100.117,0.0014353
4.3,64.0061,9.757,100.118,0.0020365
4.35,64.5062,9.758,100.119,0.0018969
4.4,65.0063,9.758,100.119,0.0008320
4.46,65.5063,9.758,100.12,0.0016636
4.51,66.0064,9.758,100.121,0.0012470
4.56,66.5065,9.758,100.122,0.0017077
4.61,67.0066,9.758,100.123,0.0017073
4.66,67.5067,9.758,100.124,0.0016143
4.71,68.0068,9.758,100.124,0.0017516
4.76,68.5069,9.758,100.125,0.0012909
4.81,69.007,9.758,100.126,0.0021669
4.86,69.5071,9.758,100.126,0.0015670
4.91,70.0071,9.758,100.127,0.0016127
4.96,70.5072,9.758,100.128,0.0014734
5.01,71.0073,9.759,100.129,0.0020261
5.06,71.5074,9.759,100.13,0.0024856
5.11,72.0075,9.759,100.13,0.0016105
5.16,72.5076,9.759,100.131,0.0019326
5.21,73.0077,9.759,100.132,0.0016565
5.26,73.5078,9.759,100.133,0.0025301
5.31,74.0079,9.759,100.134,0.0016086
5.36,74.5079,9.759,100.134,0.0017463
5.41,75.008,9.759,100.135,0.0014248
5.46,75.5081,9.759,100.136,0.0012863
5.51,76.0082,9.759,100.136,0.0011933
5.56,76.5083,9.759,100.137,0.0010551
5.61,77.0084,9.759,100.137,0.0011464
5.66,77.5085,9.759,100.138,0.0022006
5.71,78.0086,9.76,100.139,0.0011003
5.76,78.5087,9.76,100.139,0.0008708
5.81,79.0088,9.76,100.14,0.0010995
5.86,79.5088,9.76,100.14,0.0009157
5.91,80.0089,9.76,100.141,0.0015115
5.96,80.509,9.76,100.142,0.0010533
6.01,81.0091,9.76,100.142,0.0008705
6.06,81.5092,9.76,100.143,0.0016035
6.11,82.0093,9.76,100.143,0.0016038
6.16,82.5094,9.76,100.144,0.0011003
6.21,83.0095,9.76,100.144,0.0008244
6.26,83.5096,9.76,100.145,0.0012822
6.31,84.0096,9.76,100.145,0.0014194
6.36,84.5097,9.76,100.146,0.0010533
6.41,85.0098,9.76,100.146,0.0011444
6.46,85.5099,9.76,100.147,0.0007329
6.51,86.01,9.76,100.147,0.0004576
6.56,86.5101,9.76,100.148,0.0005034
6.61,87.0102,9.76,100.148,0.0011447
6.66,87.5103,9.76,100.149,0.0001830
6.71,88.0104,9.761,100.149,0.0005489
6.76,88.5104,9.761,100.15,0.0012803
6.81,89.0105,9.761,100.15,0.0005948
6.86,89.5106,9.761,100.15,0.0003662
6.91,90.0107,9.761,100.151,0.0002288
6.96,90.5108,9.761,100.151,0.0004578
7.01,91.0109,9.761,100.151,0.0000915
7.06,91.511,9.761,100.152,0.0006865
7.11,92.0111,9.761,100.152,0.0009610
7.16,92.5112,9.761,100.152,0.0005034
7.21,93.0113,9.761,100.153,0.0010525
7.26,93.5113,9.761,100.153,0.0010067
7.31,94.0114,9.761,100.153,0.0014182
7.36,94.5115,9.761,100.154,0.0006860
7.41,95.0116,9.761,100.154,0.0012812
7.46,95.5117,9.761,100.154,0.0007320
7.51,96.0118,9.761,100.155,0.0006406
7.56,96.5119,9.761,100.155,0.0011441
7.61,97.012,9.761,100.155,0.0006866
7.66,97.5121,9.761,100.155,0.0007319
7.71,98.0121,9.761,100.156,0.0002744
7.76,98.5122,9.761,100.156,0.0005949
7.81,99.0123,9.761,100.156,0.0000915
7.86,99.5124,9.761,100.156,0.0000000
7.91,100.013,9.761,100.156,-0.0000458
7.96,100.513,9.761,100.156,0.0003204
8.01,101.013,9.761,100.157,0.0000000
8.06,101.513,9.761,100.157,0.0005950
8.11,102.013,9.761,100.157,0.0005951
8.16,102.513,9.761,100.157,0.0008695
8.21,103.013,9.761,100.158,0.0005035
8.26,103.513,9.761,100.158,0.0004120
8.31,104.013,9.761,100.158,0.0000458
8.36,104.513,9.761,100.158,0.0000000
8.41,105.013,9.761,100.158,0.0005496
8.46,105.513,9.761,100.158,0.0001374
8.51,106.014,9.761,100.158,0.0008245
8.56,106.514,9.761,100.158,0.0006412
8.61,107.014,9.761,100.158,-0.0002749
8.66,107.514,9.761,100.158,0.0005038
8.71,108.014,9.761,100.158,-0.0000000
8.76,108.514,9.761,100.158,0.0000000
8.81,109.014,9.761,100.158,0.0001375
8.86,109.514,9.761,100.159,0.0002291
8.92,110.014,9.761,100.159,-0.0000459
8.97,110.514,9.761,100.159,-0.0001833
9.02,111.014,9.761,100.159,0.0002292
9.07,111.515,9.761,100.159,0.0000917
9.12,112.015,9.761,100.159,0.0003207
9.17,112.515,9.761,100.159,0.0000916
9.22,113.015,9.761,100.159,-0.0001374
9.27,113.515,9.761,100.159,-0.0005041
9.32,114.015,9.761,100.159,-0.0002291
9.37,114.515,9.761,100.159,-0.0001374
9.42,115.015,9.761,100.159,0.0000000
9.47,115.515,9.761,100.159,-0.0005034
9.52,116.015,9.761,100.159,-0.0007327
9.57,116.515,9.761,100.159,-0.0006869
9.62,117.016,9.761,100.159,-0.0003205
9.67,117.516,9.761,100.159,-0.0002289
9.72,118.016,9.761,100.159,-0.0000458
9.77,118.516,9.761,100.158,-0.0000458
9.82,119.016,9.761,100.159,-0.0002291
9.87,119.516,9.761,100.159,0.0000000
9.92,120.016,9.761,100.159,0.0002749
9.97,120.516,9.761,100.159,0.0005499
10.02,121.016,9.761,100.159,0.0002750
10.07,121.516,9.761,100.159,0.0001375
10.12,122.016,9.761,100.159,0.0000917
10.17,122.517,9.761,100.159,0.0007340
10.22,123.017,9.761,100.159,0.0001834
10.27,123.517,9.761,100.159,0.0005504
10.32,124.017,9.761,100.159,-0.0000459
10.37,124.517,9.761,100.159,0.0003210
10.42,125.017,9.762,100.159,0.0005043
10.47,125.517,9.762,100.16,0.0010090
10.52,126.017,9.762,100.16,0.0002293
10.57,126.517,9.762,100.16,0.0002293
10.62,127.017,9.762,100.16,0.0000000
10.67,127.517,9.762,100.16,-0.0002752
10.72,128.018,9.762,100.16,-0.0004578
10.77,128.518,9.762,100.159,-0.0008698
10.82,129.018,9.762,100.159,-0.0000458
10.87,129.518,9.761,100.159,-0.0006404
10.92,130.018,9.761,100.159,-0.0002287
10.97,130.518,9.761,100.159,-0.0006400
11.02,131.018,9.761,100.158,-0.0005030
11.07,131.518,9.761,100.158,-0.0005488
11.12,132.018,9.761,100.158,-0.0012796
11.17,132.518,9.761,100.157,-0.0004111
11.22,133.018,9.761,100.157,-0.0006847
11.27,133.518,9.761,100.156,-0.0010956
11.32,134.019,9.761,100.156,-0.0017800
11.37,134.519,9.761,100.155,-0.0009585
11.42,135.019,9.761,100.154,-0.0015969
11.47,135.519,9.761,100.153,-0.0014140
11.52,136.019,9.761,100.152,-0.0019154
11.57,136.519,9.761,100.151,-0.0025980
11.62,137.019,9.761,100.15,-0.0028693
11.66,137.519,9.76,100.148,-0.0033676
11.71,138.019,9.76,100.147,-0.0035500
11.76,138.519,9.76,100.145,-0.0030957
11.81,139.019,9.76,100.143,-0.0033682
11.86,139.52,9.76,100.142,-0.0030974
11.91,140.02,9.76,100.141,-0.0022796
11.96,140.52,9.76,100.139,-0.0028298
12.01,141.02,9.759,100.138,-0.0030129
12.06,141.52,9.759,100.137,-0.0027864
12.11,142.02,9.759,100.135,-0.0029721
12.16,142.52,9.759,100.134,-0.0026544
12.21,143.02,9.759,100.133,-0.0021524
12.26,143.52,9.759,100.132,-0.0021087
12.31,144.02,9.759,100.131,-0.0018345
12.36,144.52,9.759,100.129,-0.0016060
12.41,145.021,9.759,100.129,-0.0015611
12.46,145.521,9.758,100.128,-0.0018360
12.51,146.021,9.758,100.127,-0.0019289
12.56,146.521,9.758,100.126,-0.0016536
12.62,147.021,9.758,100.125,-0.0012862
12.67,147.521,9.758,100.124,-0.0014706
12.72,148.021,9.758,100.123,-0.0012405
12.77,148.521,9.758,100.122,-0.0014697
12.82,149.021,9.758,100.121,-0.0014702
12.87,149.521,9.758,100.121,-0.0011485
12.92,150.021,9.758,100.12,-0.0018830
12.97,150.522,9.758,100.119,-0.0017447
13.02,151.022,9.758,100.118,-0.0016067
13.07,151.522,9.757,100.117,-0.0017447
13.12,152.022,9.757,100.117,-0.0015149
13.17,152.522,9.757,100.116,-0.0017903
13.22,153.022,9.757,100.115,-0.0015608
13.27,153.522,9.757,100.114,-0.0014690
13.32,154.022,9.757,100.113,-0.0013314
13.37,154.522,9.757,100.113,-0.0020661
13.42,155.022,9.757,100.112,-0.0013767
13.47,155.522,9.757,100.111,-0.0016059
13.52,156.023,9.757,100.11,-0.0017895
13.57,156.523,9.757,100.11,-0.0017436
13.62,157.023,9.757,100.109,-0.0019730
13.67,157.523,9.757,100.108,-0.0017890
13.72,158.023,9.756,100.107,-0.0018354
13.77,158.523,9.756,100.106,-0.0015138
13.82,159.023,9.756,100.106,-0.0021097
13.87,159.523,9.756,100.105,-0.0022471
13.92,160.023,9.756,100.104,-0.0023849
13.97,160.523,9.756,100.103,-0.0024307
14.02,161.023,9.756,100.102,-0.0016509
14.07,161.523,9.756,100.101,-0.0025674
14.12,162.024,9.756,100.1,-0.0025213
14.17,162.524,9.756,100.098,-0.0033478
14.22,163.024,9.755,100.097,-0.0021990
14.27,163.524,9.755,100.096,-0.0026106
14.32,164.024,9.755,100.095,-0.0020642
14.37,164.524,9.755,100.094,-0.0021528
14.42,165.024,9.755,100.093,-0.0022422
14.47,165.524,9.755,100.091,-0.0030664
14.52,166.024,9.755,100.09,-0.0031585
14.57,166.524,9.755,100.088,-0.0028375
14.62,167.024,9.755,100.087,-0.0023337
14.67,167.525,9.754,100.086,-0.0031136
14.72,168.025,9.754,100.085,-0.0025174
14.77,168.525,9.754,100.084,-0.0026557
14.82,169.025,9.754,100.082,-0.0024312
14.87,169.525,9.754,100.081,-0.0016984
14.92,170.025,9.754,100.08,-0.0025236
14.97,170.525,9.754,100.079,-0.0023842
15.02,171.025,9.754,100.077,-0.0023368
15.07,171.525,9.753,100.076,-0.0019700
15.12,172.025,9.753,100.075,-0.0024272
15.17,172.525,9.753,100.074,-0.0027536
15.22,173.026,9.753,100.072,-0.0025174
15.27,173.526,9.753,100.071,-0.0022426
15.32,174.026,9.753,100.07,-0.0030650
15.37,174.526,9.753,100.069,-0.0019257
15.42,175.026,9.753,100.068,-0.0021950
15.47,175.526,9.752,100.066,-0.0019679
15.52,176.026,9.752,100.065,-0.0023803
15.57,176.526,9.752,100.064,-0.0027485
15.62,177.026,9.752,100.063,-0.0027485
15.67,177.526,9.752,100.062,-0.0027946
15.72,178.026,9.752,100.06,-0.0029318
15.77,178.527,9.752,100.059,-0.0024285
15.82,179.027,9.752,100.058,-0.0021526
15.87,179.527,9.751,100.056,-0.0019698
15.92,180.027,9.751,100.055,-0.0024283
15.97,180.527,9.751,100.054,-0.0031150
16.02,181.027,9.751,100.052,-0.0025188
16.07,181.527,9.751,100.051,-0.0023823
16.12,182.027,9.751,100.05,-0.0027948
16.17,182.527,9.751,100.048,-0.0025660
16.22,183.027,9.751,100.047,-0.0026130
16.27,183.527,9.75,100.046,-0.0028880
16.32,184.028,9.75,100.044,-0.0025213
16.37,184.528,9.75,100.043,-0.0024755
16.42,185.028,9.75,100.041,-0.0025199
16.47,185.528,9.75,100.04,-0.0025665
16.52,186.028,9.75,100.039,-0.0023362
16.57,186.528,9.75,100.037,-0.0030239
16.62,187.028,9.749,100.036,-0.0026104
16.67,187.528,9.749,100.034,-0.0032501
16.72,188.028,9.749,100.033,-0.0033415
16.77,188.528,9.749,100.031,-0.0033418
16.82,189.028,9.749,100.03,-0.0029754
16.87,189.528,9.749,100.028,-0.0032967
16.92,190.029,9.749,100.027,-0.0035714
16.97,190.529,9.748,100.025,-0.0032509
17.02,191.029,9.748,100.024,-0.0032072
17.07,191.529,9.748,100.022,-0.0029326
17.12,192.029,9.748,100.021,-0.0030239
17.17,192.529,9.748,100.02,-0.0031602
17.22,193.029,9.748,100.018,-0.0034814
17.27,193.529,9.748,100.017,-0.0032533
17.32,194.029,9.747,100.015,-0.0031614
17.37,194.529,9.747,100.014,-0.0032994
17.42,195.029,9.747,100.012,-0.0034837
17.47,195.53,9.747,100.01,-0.0030686
17.52,196.03,9.747,100.009,-0.0032527
17.57,196.53,9.747,100.007,-0.0028414
17.62,197.03,9.747,100.006,-0.0032530
17.67,197.53,9.746,100.004,-0.0030711
17.72,198.03,9.746,100.003,-0.0030234
17.77,198.53,9.746,100.001,-0.0030694
17.82,199.03,9.746,100,-0.0031142
17.87,199.53,9.746,99.998,-0.0030228
17.92,200.03,9.746,99.997,-0.0029325
17.97,200.53,9.746,99.995,-0.0025215
18.02,201.031,9.745,99.994,-0.0031164
18.07,201.531,9.745,99.992,-0.0026118
18.12,202.031,9.745,99.991,-0.0030706
18.17,202.531,9.745,99.989,-0.0031159
18.22,203.031,9.745,99.988,-0.0027961
18.27,203.531,9.745,99.986,-0.0029795
18.32,204.031,9.744,99.985,-0.0030686
18.37,204.531,9.744,99.983,-0.0024737
18.42,205.031,9.744,99.981,-0.0031127
18.47,205.531,9.744,99.98,-0.0027936
18.52,206.031,9.744,99.978,-0.0031155
18.57,206.532,9.744,99.977,-0.0030706
18.62,207.032,9.744,99.975,-0.0034840
18.67,207.532,9.743,99.974,-0.0028862
18.72,208.032,9.743,99.972,-0.0027069
18.77,208.532,9.743,99.971,-0.0029770
18.82,209.032,9.743,99.969,-0.0032060
18.87,209.532,9.743,99.967,-0.0036189
18.92,210.032,9.743,99.966,-0.0032547
18.97,210.532,9.742,99.964,-0.0029336
19.02,211.032,9.742,99.962,-0.0035295
19.07,211.532,9.742,99.961,-0.0033945
19.12,212.033,9.742,99.959,-0.0024748
19.17,212.533,9.742,99.957,-0.0034347
19.22,213.033,9.742,99.956,-0.0037095
19.27,213.533,9.742,99.954,-0.0035711
19.32,214.033,9.741,99.952,-0.0035708
19.37,214.533,9.741,99.951,-0.0034799
19.42,215.033,9.741,99.949,-0.0032043
19.47,215.533,9.741,99.948,-0.0037088
19.52,216.033,9.741,99.946,-0.0032060
19.57,216.533,9.741,99.944,-0.0030678
19.62,217.033,9.74,99.943,-0.0032518
19.67,217.533,9.74,99.941,-0.0028407
19.72,218.034,9.74,99.94,-0.0033013
19.77,218.534,9.74,99.938,-0.0026134
19.82,219.034,9.74,99.936,-0.0033456
19.87,219.534,9.74,99.935,-0.0032533
19.92,220.034,9.739,99.933,-0.0029323
19.97,220.534,9.739,99.931,-0.0025211
20.02,221.034,9.739,99.93,-0.0028420
20.07,221.534,9.739,99.928,-0.0030258
20.12,222.034,9.739,99.926,-0.0032104
20.17,222.534,9.739,99.925,-0.0032530
20.22,223.034,9.738,99.923,-0.0033464
20.27,223.535,9.738,99.921,-0.0032545
20.32,224.035,9.738,99.92,-0.0031617
20.38,224.535,9.738,99.918,-0.0029323
20.43,225.035,9.738,99.917,-0.0032081
20.48,225.535,9.738,99.915,-0.0031153
20.53,226.035,9.738,99.914,-0.0033908
20.58,226.535,9.737,99.912,-0.0032509
20.63,227.035,9.737,99.91,-0.0030684
20.68,227.535,9.737,99.909,-0.0037098
20.73,228.035,9.737,99.907,-0.0035740
20.78,228.535,9.737,99.905,-0.0038046
20.83,229.036,9.737,99.903,-0.0033004
20.88,229.536,9.736,99.902,-0.0034853
20.93,230.036,9.736,99.9,-0.0035767
20.98,230.536,9.736,99.898,-0.0033015
21.03,231.036,9.736,99.897,-0.0035305
21.08,231.536,9.736,99.895,-0.0033936
21.13,232.036,9.736,99.893,-0.0035787
21.18,232.536,9.735,99.892,-0.0028907
21.23,233.036,9.735,99.89,-0.0033954
21.28,233.536,9.735,99.888,-0.0033502
21.33,234.036,9.735,99.887,-0.0030295
21.38,234.537,9.735,99.885,-0.0035783
21.43,235.037,9.735,99.883,-0.0038522
21.48,235.537,9.734,99.881,-0.0037132
21.53,236.037,9.734,99.879,-0.0036640
21.58,236.537,9.734,99.878,-0.0024267
21.63,237.037,9.734,99.876,-0.0027010
21.68,237.537,9.734,99.874,-0.0034325
21.73,238.037,9.734,99.873,-0.0042551
21.78,238.537,9.733,99.871,-0.0039359
21.83,239.037,9.733,99.869,-0.0027918
21.88,239.537,9.733,99.867,-0.0032494
21.93,240.038,9.733,99.866,-0.0032028
21.98,240.538,9.733,99.864,-0.0037993
22.03,241.038,9.733,99.862,-0.0036182
22.08,241.538,9.732,99.86,-0.0028402
22.13,242.038,9.732,99.859,-0.0027485
22.18,242.538,9.732,99.857,-0.0034818
22.23,243.038,9.732,99.855,-0.0037546
22.28,243.538,9.732,99.853,-0.0035724
22.33,244.038,9.732,99.852,-0.0031155
22.38,244.538,9.731,99.85,-0.0034357
22.43,245.038,9.731,99.848,-0.0040759
22.48,245.538,9.731,99.846,-0.0043040
22.53,246.039,9.731,99.845,-0.0032057
22.58,246.539,9.731,99.843,-0.0031158
22.63,247.039,9.731,99.841,-0.0034339
22.68,247.539,9.73,99.839,-0.0040740
22.73,248.039,9.73,99.838,-0.0039853
22.78,248.539,9.73,99.836,-0.0033456
22.83,249.039,9.73,99.834,-0.0028876
22.88,249.539,9.73,99.832,-0.0034834
22.93,250.039,9.729,99.83,-0.0040788
22.98,250.539,9.729,99.829,-0.0041678
23.03,251.039,9.729,99.827,-0.0036205
23.08,251.54,9.729,99.825,-0.0035803
23.13,252.04,9.729,99.823,-0.0030720
23.18,252.54,9.729,99.821,-0.0035717
23.23,253.04,9.728,99.819,-0.0033073
23.28,253.54,9.728,99.817,-0.0036215
23.33,254.04,9.728,99.816,-0.0033370
23.38,254.54,9.728,99.814,-0.0030201
23.43,255.04,9.728,99.812,-0.0029296
23.48,255.54,9.728,99.81,-0.0034344
23.53,256.04,9.727,99.809,-0.0032521
23.58,256.54,9.727,99.807,-0.0032080
23.63,257.041,9.727,99.805,-0.0036677
23.68,257.541,9.727,99.803,-0.0043980
23.73,258.041,9.727,99.801,-0.0033022
23.78,258.541,9.726,99.799,-0.0036630
23.83,259.041,9.726,99.797,-0.0041667
23.88,259.541,9.726,99.795,-0.0037559
23.93,260.041,9.726,99.794,-0.0038026
23.98,260.541,9.726,99.792,-0.0038489
24.03,261.041,9.725,99.79,-0.0037122
24.08,261.541,9.725,99.788,-0.0030694
24.13,262.041,9.725,99.786,-0.0041690
24.18,262.542,9.725,99.784,-0.0044431
24.23,263.042,9.725,99.782,-0.0040330
24.28,263.542,9.725,99.78,-0.0042606
24.33,264.042,9.724,99.778,-0.0046746
24.38,264.542,9.724,99.776,-0.0040826
24.43,265.042,9.724,99.774,-0.0037593
24.48,265.542,9.724,99.772,-0.0037142
24.53,266.042,9.724,99.77,-0.0039406
24.58,266.542,9.723,99.768,-0.0037108
24.63,267.042,9.723,99.766,-0.0032528
24.68,267.542,9.723,99.765,-0.0038477
24.73,268.043,9.723,99.763,-0.0034341
24.78,268.543,9.723,99.761,-0.0032492
24.83,269.043,9.723,99.76,-0.0028846
24.88,269.543,9.722,99.758,-0.0033425
24.93,270.043,9.722,99.757,-0.0027015
24.98,270.543,9.722,99.755,-0.0049037
25.03,271.043,9.722,99.753,-0.0047691
25.08,271.543,9.722,99.751,-0.0039887
25.13,272.043,9.721,99.748,-0.0046780
25.18,272.543,9.721,99.746,-0.0039420
25.23,273.043,9.721,99.744,-0.0045830
25.28,273.543,9.721,99.742,-0.0044890
25.33,274.044,9.721,99.74,-0.0038475
25.38,274.544,9.72,99.738,-0.0037546
25.43,275.044,9.72,99.735,-0.0040293
25.48,275.544,9.72,99.733,-0.0046228
25.53,276.044,9.72,99.731,-0.0037088
25.58,276.544,9.72,99.729,-0.0034341
25.63,277.044,9.719,99.727,-0.0039406
25.68,277.544,9.719,99.725,-0.0043064
25.73,278.044,9.719,99.723,-0.0043996
25.78,278.544,9.719,99.72,-0.0043081
25.83,279.044,9.719,99.718,-0.0032546
25.88,279.545,9.718,99.716,-0.0043515
25.93,280.045,9.718,99.714,-0.0040293
25.98,280.545,9.718,99.712,-0.0040307
26.03,281.045,9.718,99.711,-0.0038024
26.08,281.545,9.718,99.708,-0.0037566
26.13,282.045,9.717,99.707,-0.0037074
26.18,282.545,9.717,99.705,-0.0043514
26.23,283.045,9.717,99.703,-0.0039858
26.28,283.545,9.717,99.701,-0.0041697
26.33,284.045,9.717,99.699,-0.0038039
26.38,284.545,9.716,99.697,-0.0036663
26.43,285.046,9.716,99.695,-0.0038483
26.48,285.546,9.716,99.693,-0.0038907
26.53,286.046,9.716,99.691,-0.0037566
26.58,286.546,9.716,99.689,-0.0043956
26.63,287.046,9.715,99.686,-0.0039377
26.68,287.546,9.715,99.685,-0.0037983
26.73,288.046,9.715,99.683,-0.0037567
26.78,288.546,9.715,99.681,-0.0046703
26.83,289.046,9.715,99.678,-0.0039813
26.88,289.546,9.714,99.676,-0.0047644
26.93,290.046,9.714,99.674,-0.0042599
26.98,290.547,9.714,99.671,-0.0053114
27.03,291.047,9.714,99.669,-0.0046729
27.08,291.547,9.714,99.667,-0.0038907
27.13,292.047,9.713,99.665,-0.0039377
27.18,292.547,9.713,99.662,-0.0040751
27.23,293.047,9.713,99.66,-0.0047161
27.28,293.547,9.713,99.658,-0.0038907
27.33,294.047,9.712,99.656,-0.0041179
27.38,294.547,9.712,99.653,-0.0042101
27.43,295.047,9.712,99.651,-0.0053084
27.48,295.547,9.712,99.649,-0.0048975
27.53,296.048,9.712,99.646,-0.0043040
27.58,296.548,9.711,99.644,-0.0054079
27.63,297.048,9.711,99.641,-0.0048096
27.68,297.548,9.711,99.639,-0.0043017
27.73,298.048,9.711,99.637,-0.0036152
27.78,298.548,9.71,99.635,-0.0059034
27.83,299.048,9.71,99.633,-0.0039377
27.88,299.548,9.71,99.632,-0.0042582
27.93,300.048,9.71,99.63,-0.0036642
27.98,300.548,9.71,99.628,-0.0043979
28.03,301.048,9.709,99.625,-0.0044471
28.08,301.548,9.709,99.623,-0.0042179
28.13,302.049,9.709,99.621,-0.0067334
28.18,302.549,9.709,99.618,-0.0054069
28.23,303.049,9.709,99.616,-0.0045355
28.28,303.549,9.708,99.614,-0.0058630
28.33,304.049,9.708,99.611,-0.0051740
28.38,304.549,9.708,99.609,-0.0045788
28.43,305.049,9.708,99.606,-0.0059525
28.48,305.549,9.707,99.603,-0.0062271
28.53,306.049,9.707,99.601,-0.0052178
28.58,306.549,9.707,99.598,-0.0048993
28.63,307.049,9.707,99.596,-0.0061355
28.68,307.55,9.706,99.593,-0.0051282
28.73,308.05,9.706,99.591,-0.0050366
28.78,308.55,9.706,99.588,-0.0063645
28.83,309.05,9.706,99.585,-0.0063221
28.88,309.55,9.705,99.583,-0.0048093
28.93,310.05,9.705,99.58,-0.0050395
28.98,310.55,9.705,99.577,-0.0061378
29.03,311.05,9.705,99.575,-0.0055403
29.08,311.55,9.704,99.572,-0.0045346
29.13,312.05,9.704,99.569,-0.0060036
29.18,312.55,9.704,99.566,-0.0061401
29.23,313.051,9.703,99.563,-0.0050412
29.28,313.551,9.703,99.561,-0.0059589
29.33,314.051,9.703,99.558,-0.0052685
29.38,314.551,9.703,99.555,-0.0051282
29.43,315.051,9.702,99.552,-0.0060897
29.48,315.551,9.702,99.549,-0.0059982
29.53,316.051,9.702,99.546,-0.0055382
29.58,316.551,9.701,99.543,-0.0054029
29.63,317.051,9.701,99.54,-0.0056287
29.68,317.551,9.701,99.537,-0.0058130
29.73,318.051,9.701,99.534,-0.0053134
29.78,318.552,9.7,99.531,-0.0056319
29.83,319.052,9.7,99.528,-0.0062271
29.88,319.552,9.7,99.525,-0.0061813
29.93,320.052,9.699,99.522,-0.0066873
29.98,320.552,9.699,99.519,-0.0061847
30.03,321.052,9.699,99.516,-0.0064595
30.08,321.552,9.699,99.513,-0.0066392
30.13,322.052,9.698,99.51,-0.0062672
30.18,322.552,9.698,99.506,-0.0068656
30.23,323.052,9.698,99.503,-0.0066802
30.28,323.552,9.697,99.5,-0.0071859
30.33,324.053,9.697,99.497,-0.0069569
30.38,324.553,9.696,99.492,-0.0114072
30.43,325.053,9.696,99.487,-0.0095696
30.48,325.553,9.696,99.482,-0.0083819
30.53,326.053,9.695,99.478,-0.0091659
30.58,326.553,9.695,99.473,-0.0073746
30.63,327.053,9.694,99.469,-0.0076007
30.68,327.553,9.694,99.465,-0.0083333
30.73,328.053,9.693,99.461,-0.0065440
30.78,328.553,9.693,99.457,-0.0078726
30.83,329.053,9.693,99.454,-0.0081915
30.88,329.553,9.692,99.45,-0.0068186
30.93,330.054,9.692,99.446,-0.0073260
30.98,330.554,9.692,99.443,-0.0069112
31.03,331.054,9.691,99.439,-0.0063645
31.08,331.554,9.691,99.436,-0.0084707
31.13,332.054,9.691,99.432,-0.0069622
31.18,332.554,9.69,99.429,-0.0068285
31.23,333.054,9.69,99.425,-0.0080190
31.28,333.554,9.69,99.421,-0.0072802
31.33,334.054,9.689,99.417,-0.0069624
31.38,334.554,9.689,99.414,-0.0084707
31.43,335.054,9.688,99.41,-0.0073678
31.48,335.555,9.688,99.406,-0.0069077
31.53,336.055,9.688,99.403,-0.0078255
31.58,336.555,9.687,99.399,-0.0070943
31.63,337.055,9.687,99.395,-0.0075981
31.68,337.555,9.687,99.391,-0.0072320
31.73,338.055,9.686,99.387,-0.0073761
31.78,338.555,9.686,99.383,-0.0081044
31.83,339.055,9.686,99.379,-0.0080128
31.88,339.555,9.685,99.375,-0.0085194
31.93,340.055,9.685,99.371,-0.0077839
31.98,340.555,9.684,99.367,-0.0087407
32.03,341.056,9.684,99.363,-0.0089236
32.08,341.556,9.683,99.359,-0.0086051
32.13,342.056,9.683,99.354,-0.0092949
32.18,342.556,9.683,99.35,-0.0087454
32.23,343.056,9.682,99.346,-0.0079846
32.28,343.556,9.682,99.341,-0.0093034
32.33,344.056,9.681,99.337,-0.0084552
32.38,344.556,9.681,99.332,-0.0081502
32.43,345.056,9.681,99.328,-0.0096539
32.48,345.556,9.68,99.324,-0.0082343
32.53,346.056,9.68,99.319,-0.0085165
32.58,346.557,9.679,99.315,-0.0086996
32.63,347.057,9.679,99.311,-0.0087944
32.68,347.557,9.678,99.306,-0.0085701
32.73,348.057,9.678,99.302,-0.0086081
32.78,348.557,9.678,99.297,-0.0100275
32.83,349.057,9.677,99.293,-0.0088419
32.88,349.557,9.677,99.289,-0.0083791
32.93,350.057,9.676,99.284,-0.0090742
32.98,350.557,9.676,99.28,-0.0084736
33.03,351.057,9.675,99.276,-0.0078341
33.08,351.557,9.675,99.272,-0.0078297
33.13,352.058,9.675,99.268,-0.0081931
33.18,352.558,9.674,99.264,-0.0076535
33.23,353.058,9.674,99.26,-0.0071967
33.28,353.558,9.673,99.256,-0.0086035
33.33,354.058,9.673,99.252,-0.0074634
33.38,354.558,9.673,99.248,-0.0077423
33.43,355.058,9.672,99.244,-0.0087501
33.48,355.558,9.672,99.241,-0.0072411
33.53,356.058,9.672,99.237,-0.0073772
33.58,356.558,9.671,99.233,-0.0077453
33.63,357.058,9.671,99.23,-0.0067355
33.68,357.558,9.671,99.226,-0.0073327
33.73,358.059,9.67,99.223,-0.0073287
33.78,358.559,9.67,99.219,-0.0066611
33.83,359.059,9.67,99.215,-0.0087681
33.88,359.559,9.669,99.212,-0.0071298
33.93,360.059,9.669,99.208,-0.0065476
33.98,360.559,9.668,99.205,-0.0073328
34.03,361.059,9.668,99.201,-0.0067395
34.08,361.559,9.668,99.198,-0.0071979
34.14,362.059,9.667,99.194,-0.0065994
34.19,362.559,9.667,99.191,-0.0076076
34.24,363.059,9.667,99.187,-0.0075160
34.29,363.56,9.666,99.183,-0.0076949
34.34,364.06,9.666,99.179,-0.0077422
34.39,364.56,9.666,99.176,-0.0072842
34.44,365.06,9.665,99.172,-0.0067308
34.49,365.56,9.665,99.168,-0.0064560
34.54,366.06,9.665,99.164,-0.0079628
34.59,366.56,9.664,99.16,-0.0077339
34.64,367.06,9.664,99.156,-0.0078755
34.69,367.56,9.663,99.152,-0.0080103
34.74,368.06,9.663,99.148,-0.0085576
34.79,368.56,9.663,99.144,-0.0092033
34.84,369.061,9.662,99.14,-0.0079714
34.89,369.561,9.662,99.135,-0.0085165
34.94,370.061,9.661,99.131,-0.0083791
34.99,370.561,9.661,99.127,-0.0079212
35.04,371.061,9.66,99.123,-0.0090659
35.09,371.561,9.66,99.118,-0.0086948
35.14,372.061,9.66,99.114,-0.0091545
35.19,372.561,9.659,99.109,-0.0082828
35.24,373.061,9.659,99.105,-0.0095625
35.29,373.561,9.658,99.1,-0.0097402
35.34,374.061,9.658,99.096,-0.0107461
35.39,374.562,9.657,99.09,-0.0110300
35.44,375.062,9.657,99.085,-0.0105588
35.49,375.562,9.656,99.08,-0.0102515
35.54,376.062,9.656,99.074,-0.0107168
35.59,376.562,9.655,99.069,-0.0111356
35.64,377.062,9.655,99.064,-0.0105936
35.69,377.562,9.654,99.058,-0.0112391
35.74,378.062,9.654,99.053,-0.0115674
35.79,378.562,9.653,99.047,-0.0113429
35.84,379.062,9.653,99.041,-0.0119396
35.89,379.562,9.652,99.036,-0.0115321
35.94,380.063,9.651,99.03,-0.0117674
35.99,380.563,9.651,99.024,-0.0120879
36.04,381.063,9.65,99.018,-0.0122320
36.09,381.563,9.65,99.012,-0.0126762
36.14,382.063,9.649,99.005,-0.0133120
36.19,382.563,9.648,98.999,-0.0129965
36.24,383.063,9.648,98.992,-0.0136447
36.29,383.563,9.647,98.986,-0.0141077
36.34,384.063,9.646,98.979,-0.0135605
36.39,384.563,9.646,98.972,-0.0145200
36.44,385.063,9.645,98.965,-0.0144363
36.49,385.563,9.644,98.958,-0.0151237
36.54,386.064,9.644,98.95,-0.0154876
36.59,386.564,9.643,98.943,-0.0152154
36.64,387.064,9.642,98.935,-0.0156794
36.69,387.564,9.641,98.927,-0.0159429
36.74,388.064,9.641,98.919,-0.0161172
36.79,388.564,9.64,98.911,-0.0167278
36.84,389.064,9.639,98.903,-0.0167217
36.89,389.564,9.638,98.895,-0.0174908
36.94,390.064,9.637,98.886,-0.0178571
36.99,390.564,9.637,98.877,-0.0179128
37.04,391.064,9.636,98.868,-0.0180861
37.09,391.565,9.635,98.859,-0.0182793
37.14,392.065,9.634,98.85,-0.0189172
37.19,392.565,9.633,98.841,-0.0188187
37.24,393.065,9.632,98.831,-0.0193681
37.29,393.565,9.631,98.821,-0.0204212
37.34,394.065,9.63,98.811,-0.0203370
37.39,394.565,9.629,98.801,-0.0203147
37.44,395.065,9.628,98.79,-0.0210888
37.49,395.565,9.627,98.78,-0.0210546
37.54,396.065,9.626,98.769,-0.0218487
37.59,396.565,9.625,98.758,-0.0216378
37.64,397.066,9.624,98.747,-0.0228271
37.69,397.566,9.623,98.735,-0.0233889
37.74,398.066,9.622,98.723,-0.0240711
37.79,398.566,9.62,98.711,-0.0242999
37.84,399.066,9.619,98.699,-0.0250091
37.89,399.566,9.618,98.686,-0.0253119
37.94,400.066,9.617,98.673,-0.0262580
37.99,400.566,9.615,98.659,-0.0266386
38.04,401.066,9.614,98.646,-0.0272844
38.09,401.566,9.613,98.632,-0.0281697
38.14,402.066,9.611,98.617,-0.0285819
38.19,402.567,9.61,98.603,-0.0298535
38.24,403.067,9.608,98.588,-0.0300714
38.29,403.567,9.607,98.572,-0.0311813
38.34,404.067,9.605,98.557,-0.0315934
38.39,404.567,9.604,98.541,-0.0316734
38.44,405.067,9.602,98.525,-0.0317933
38.49,405.567,9.601,98.508,-0.0331502
38.54,406.067,9.599,98.491,-0.0352758
38.59,406.567,9.597,98.473,-0.0362180
38.64,407.067,9.595,98.456,-0.0357470
38.69,407.567,9.594,98.437,-0.0365976
38.74,408.068,9.592,98.418,-0.0382077
38.79,408.568,9.59,98.399,-0.0394231
38.84,409.068,9.588,98.379,-0.0398810
38.89,409.568,9.586,98.359,-0.0395872
38.94,410.068,9.584,98.339,-0.0400676
38.99,410.568,9.582,98.317,-0.0422161
39.04,411.068,9.58,98.296,-0.0448929
39.09,411.568,9.578,98.274,-0.0435282
39.14,412.068,9.576,98.252,-0.0447243
39.19,412.568,9.573,98.229,-0.0463385
39.24,413.068,9.571,98.205,-0.0483090
39.29,413.568,9.569,98.181,-0.0495245
39.34,414.069,9.566,98.156,-0.0505126
39.39,414.569,9.564,98.13,-0.0515110
39.44,415.069,9.561,98.103,-0.0534079
39.49,415.569,9.559,98.076,-0.0556319
39.54,416.069,9.556,98.048,-0.0570055
39.59,416.569,9.553,98.019,-0.0582875
39.64,417.069,9.55,97.989,-0.0600733
39.69,417.569,9.547,97.959,-0.0620421
39.74,418.069,9.544,97.927,-0.0641705
39.79,418.569,9.541,97.895,-0.0672161
39.84,419.069,9.537,97.861,-0.0681777
39.89,419.57,9.534,97.826,-0.0708333
39.94,420.07,9.531,97.79,-0.0734164
39.99,420.57,9.527,97.752,-0.0762542
40.04,421.07,9.523,97.714,-0.0782994
40.09,421.57,9.519,97.674,-0.0804210
40.14,422.07,9.515,97.631,-0.0839432
40.19,422.57,9.511,97.589,-0.0869983
40.24,423.07,9.507,97.545,-0.0894983
40.29,423.57,9.502,97.499,-0.0930329
40.34,424.07,9.498,97.452,-0.0956112
40.39,424.57,9.493,97.403,-0.1001370
40.44,425.071,9.488,97.352,-0.1038740
40.49,425.571,9.483,97.301,-0.1084940
40.54,426.071,9.477,97.245,-0.1154620
40.59,426.571,9.471,97.182,-0.1373330
40.64,427.071,9.464,97.111,-0.1552150
40.69,427.571,9.457,97.033,-0.1688170
40.74,428.071,9.449,96.948,-0.1777670
40.79,428.571,9.439,96.854,-0.1993870
40.84,429.071,9.43,96.753,-0.2106590
40.89,429.571,9.419,96.646,-0.2203280
40.94,430.071,9.408,96.535,-0.2328960
40.99,430.572,9.397,96.419,-0.2367340
41.04,431.072,9.385,96.298,-0.2450610
41.09,431.572,9.373,96.175,-0.2555400
41.14,432.072,9.361,96.049,-0.2550830
41.19,432.572,9.348,95.921,-0.2765680
41.24,433.072,9.335,95.785,-0.2760380
41.29,433.572,9.321,95.639,-0.3003010
41.34,434.072,9.305,95.474,-0.3519100
41.39,434.572,9.288,95.299,-0.3482520
41.44,435.072,9.271,95.125,-0.3468970
41.49,435.572,9.254,94.948,-0.3632490
41.54,436.073,9.235,94.761,-0.3821720
41.59,436.573,9.216,94.564,-0.4058590
41.64,437.073,9.196,94.357,-0.4208540
41.69,437.573,9.175,94.142,-0.4418310
41.74,438.073,9.153,93.915,-0.4623600
41.79,438.573,9.13,93.675,-0.4959690
41.84,439.073,9.105,93.427,-0.4937710
41.89,439.573,9.081,93.177,-0.5080190
41.94,440.073,9.055,92.909,-0.5227700
41.99,440.573,9.029,92.641,-0.5405450
42.04,441.073,9.002,92.363,-0.5590890
42.09,441.573,8.973,92.068,-0.6016920
42.14,442.074,8.944,91.769,-0.6351520
42.19,442.574,8.912,91.438,-0.6512160
42.24,443.074,8.879,91.099,-0.6798530
42.29,443.574,8.844,90.749,-0.7173690
42.34,444.074,8.807,90.363,-0.7505960
42.39,444.574,8.768,89.967,-0.8041460
42.44,445.074,8.729,89.567,-0.7811630
42.49,445.574,8.689,89.151,-0.8260330
42.54,446.074,8.647,88.723,-0.8788000
42.59,446.574,8.602,88.264,-0.9381160
42.64,447.074,8.555,87.777,-0.9573260
42.69,447.575,8.506,87.278,-0.9899180
42.74,448.075,8.455,86.756,-1.02377
42.79,448.575,8.404,86.227,-1.08565
42.84,449.075,8.349,85.67,-1.08157
42.89,449.575,8.294,85.104,-1.19074
42.94,450.075,8.23,84.443,-1.39096
42.99,450.575,8.162,83.747,-1.4139
43.04,451.075,8.091,83.024,-1.47475
43.09,451.575,8.018,82.271,-1.50064
43.14,452.075,7.942,81.495,-1.6481
43.19,452.575,7.871,80.766,-1.37141
43.24,453.076,7.8,80.032,-1.63964
43.29,453.576,7.722,79.233,-1.67139
43.34,454.076,7.642,78.411,-1.6552
43.39,454.576,7.561,77.583,-1.64394
43.44,455.076,7.478,76.733,-1.77393
43.49,455.576,7.391,75.836,-1.94633
43.54,456.076,7.299,74.89,-1.88993
43.59,456.576,7.202,73.901,-1.95781
43.64,457.076,7.102,72.867,-2.08861
43.69,457.576,7.005,71.872,-2.07609
43.74,458.076,6.902,70.817,-2.25731
43.79,458.577,6.791,69.678,-2.3348
43.84,459.077,6.68,68.544,-2.20458
43.89,459.577,6.565,67.363,-2.41192
43.94,460.077,6.447,66.152,-2.55188
43.99,460.577,6.329,64.938,-2.4756
44.04,461.077,6.206,63.676,-2.52737
44.09,461.577,6.084,62.424,-2.66467
44.14,462.077,5.955,61.107,-2.69106
44.19,462.577,5.824,59.756,-2.73495
44.24,463.077,5.686,58.344,-2.85914
44.29,463.577,5.546,56.901,-2.90704
44.34,464.078,5.403,55.438,-2.93768
44.39,464.578,5.255,53.922,-3.12771
44.44,465.078,5.109,52.419,-3.09181
44.49,465.578,4.949,50.783,-3.16295
44.54,466.078,4.794,49.191,-3.25401
44.59,466.578,4.638,47.591,-3.13911
44.64,467.078,4.479,45.953,-3.23092
44.69,467.578,4.317,44.29,-3.30382
44.74,468.078,4.146,42.538,-3.57332
44.79,468.578,3.984,40.874,-3.37737
44.84,469.078,3.814,39.138,-3.49296
44.89,469.578,3.652,37.477,-3.42643
44.94,470.079,3.484,35.744,-3.41132
44.99,470.579,3.315,34.011,-3.64857
45.04,471.079,3.146,32.284,-3.4119
45.09,471.579,2.979,30.571,-3.39118
45.14,472.079,2.813,28.86,-3.39858
45.19,472.579,2.646,27.148,-3.47798
45.24,473.079,2.482,25.462,-3.30792
45.29,473.579,2.319,23.796,-3.25769
45.34,474.079,2.165,22.209,-3.25087
45.39,474.579,2.007,20.588,-3.1177
45.44,475.079,1.855,19.03,-3.04076
45.49,475.58,1.707,17.519,-2.95049
45.54,476.08,1.565,16.056,-2.85319
45.59,476.58,1.428,14.648,-2.73105
45.63,477.08,1.301,13.345,-2.60108
45.68,477.58,1.176,12.062,-2.48128
45.74,478.08,1.054,10.819,-2.26811
45.78,478.58,0.9480000,9.726,-2.1792
45.83,479.08,0.8450000,8.674,-2.00765
45.88,479.58,0.7510000,7.709,-1.79193
45.93,480.08,0.6660000,6.832,-1.62324
45.98,480.58,0.5920000,6.079,-1.53598
46.03,481.081,0.5240000,5.38,-1.30841
46.08,481.581,0.4640000,4.765,-1.13517
46.13,482.081,0.4120000,4.232,-1.00319
46.18,482.581,0.3700000,3.792,-0.8671290
46.23,483.081,0.3310000,3.397,-0.7226050
46.28,483.581,0.2980000,3.062,-0.6180740
46.33,484.081,0.2710000,2.782,-0.5265100
46.38,484.581,0.2480000,2.549,-0.4217320
46.43,485.081,0.2300000,2.36,-0.3344220
46.48,485.581,0.2150000,2.206,-0.2653460
46.53,486.081,0.2030000,2.085,-0.2139230
46.58,486.582,0.1940000,1.991,-0.1638120
46.63,487.082,0.1870000,1.92,-0.1237400
46.68,487.582,0.1820000,1.871,-0.0809006
46.73,488.082,0.1790000,1.836,-0.0695709
46.78,488.582,0.1760000,1.802,-0.0683317
46.83,489.082,0.1720000,1.77,-0.0620303
46.88,489.582,0.1700000,1.74,-0.0533389
46.93,490.082,0.1670000,1.716,-0.0447672
46.98,490.582,0.1650000,1.696,-0.0362922
47.03,491.082,0.1640000,1.68,-0.0293365
47.09,491.582,0.1620000,1.666,-0.0229759
47.14,492.083,0.1610000,1.656,-0.0182601
47.19,492.583,0.1610000,1.648,-0.0148939
47.24,493.083,0.1600000,1.641,-0.0123881
47.29,493.583,0.1590000,1.636,-0.0087689
47.34,494.083,0.1590000,1.632,-0.0065133
47.39,494.583,0.1590000,1.629,-0.0050444
47.44,495.083,0.1590000,1.627,-0.0042239
47.49,495.583,0.1580000,1.625,-0.0043522
47.54,496.083,0.1580000,1.623,-0.0037349
47.59,496.583,0.1580000,1.622,-0.0019926
47.64,497.083,0.1580000,1.621,-0.0005666
47.69,497.583,0.1580000,1.62,-0.0010726
47.74,498.084,0.1580000,1.619,-0.0012113
47.79,498.584,0.1580000,1.619,-0.0015360
47.84,499.084,0.1580000,1.618,-0.0001538
47.89,499.584,0.1580000,1.618,-0.0002618
47.94,500.084,0.1580000,1.618,-0.0002905
47.99,500.584,0.1580000,1.617,-0.0011191
48.04,501.084,0.1580000,1.617,-0.0008750
48.09,501.584,0.1580000,1.617,0.0001446
48.14,502.084,0.1580000,1.617,0.0005738
48.19,502.584,0.1580000,1.617,0.0002218
48.24,503.084,0.1580000,1.617,-0.0006146
48.29,503.585,0.1580000,1.617,-0.0001222
48.34,504.085,0.1580000,1.616,0.0001029
48.39,504.585,0.1580000,1.616,-0.0000221
48.44,505.085,0.1580000,1.616,-0.0002945
48.49,505.585,0.1580000,1.617,-0.0000700
48.54,506.085,0.1580000,1.617,-0.0003579
48.59,506.585,0.1580000,1.616,0.0002231
48.64,507.085,0.1580000,1.616,0.0001886
48.69,507.585,0.1580000,1.616,-0.0002336
48.74,508.085,0.1580000,1.616,-0.0003781
48.79,508.585,0.1580000,1.616,0.0003960
48.84,509.086,0.1570000,1.616,0.0001593
48.89,509.586,0.1570000,1.616,0.0000486
48.94,510.086,0.1570000,1.616,-0.0000664
48.99,510.586,0.1570000,1.616,0.0004699
49.04,511.086,0.1570000,1.616,-0.0001464
49.09,511.586,0.1570000,1.616,-0.0003563
49.14,512.086,0.1570000,1.616,-0.0005223
49.19,512.586,0.1570000,1.615,0.0004153
49.24,513.086,0.1570000,1.615,-0.0002744
49.29,513.586,0.1570000,1.615,-0.0000428
49.34,514.086,0.1570000,1.615,-0.0000057
49.39,514.587,0.1570000,1.615,-0.0004037
49.44,515.087,0.1570000,1.615,-0.0001022
49.49,515.587,0.1570000,1.615,-0.0001128
49.54,516.087,0.1570000,1.614,-0.0004281
49.59,516.587,0.1570000,1.614,-0.0009240
49.64,517.087,0.1570000,1.614,-0.0003477
49.69,517.587,0.1570000,1.613,-0.0005284
49.74,518.087,0.1570000,1.613,-0.0008026
49.79,518.587,0.1570000,1.613,-0.0004367
49.84,519.087,0.1570000,1.613,-0.0009720
49.89,519.587,0.1570000,1.612,-0.0006727
49.94,520.088,0.1570000,1.612,-0.0009604
49.99,520.588,0.1570000,1.612,-0.0005012
50.04,521.088,0.1570000,1.611,-0.0003222
50.09,521.588,0.1570000,1.611,-0.0006148
50.14,522.088,0.1570000,1.611,-0.0008234
50.19,522.588,0.1570000,1.611,-0.0005836
50.24,523.088,0.1570000,1.611,-0.0000993
50.29,523.588,0.1570000,1.611,-0.0004528
50.34,524.088,0.1570000,1.61,-0.0010219
50.39,524.588,0.1570000,1.61,-0.0006005
50.44,525.088,0.1570000,1.61,-0.0004307
50.49,525.588,0.1570000,1.61,-0.0005615
50.54,526.089,0.1570000,1.61,-0.0003735
50.59,526.589,0.1570000,1.609,-0.0013083
50.64,527.089,0.1570000,1.609,-0.0005953
50.69,527.589,0.1570000,1.609,0.0002423
50.74,528.089,0.1570000,1.609,-0.0009815
50.79,528.589,0.1570000,1.608,-0.0009090
50.84,529.089,0.1570000,1.608,-0.0006285
50.89,529.589,0.1570000,1.608,-0.0004961
50.94,530.089,0.1570000,1.608,-0.0006031
50.99,530.589,0.1570000,1.607,0.0000554
51.04,531.089,0.1570000,1.607,-0.0003717
51.09,531.59,0.1570000,1.607,0.0000980
51.14,532.09,0.1570000,1.607,-0.0000164
51.19,532.59,0.1570000,1.607,-0.0001393
51.24,533.09,0.1570000,1.607,-0.0002109
51.29,533.59,0.1570000,1.606,0.0000586
51.34,534.09,0.1570000,1.606,-0.0002304
51.39,534.59,0.1570000,1.606,-0.0001629
51.44,535.09,0.1560000,1.606,-0.0006831
51.49,535.59,0.1560000,1.606,-0.0003967
51.54,536.09,0.1560000,1.605,-0.0009423
51.59,536.59,0.1560000,1.605,-0.0000930
51.64,537.091,0.1560000,1.605,-0.0003637
51.69,537.591,0.1560000,1.605,-0.0004353
51.74,538.091,0.1560000,1.604,-0.0010210
51.79,538.591,0.1560000,1.604,-0.0004072
51.84,539.091,0.1560000,1.604,-0.0005353
51.89,539.591,0.1560000,1.603,-0.0009601
51.94,540.091,0.1560000,1.603,-0.0005946
51.99,540.591,0.1560000,1.603,-0.0008757
52.04,541.091,0.1560000,1.602,-0.0001324
52.09,541.591,0.1560000,1.602,-0.0003649
52.14,542.091,0.1560000,1.602,-0.0008627
52.19,542.592,0.1560000,1.601,-0.0008006
52.24,543.092,0.1560000,1.601,-0.0004006
52.29,543.592,0.1560000,1.601,-0.0008235
52.34,544.092,0.1560000,1.6,-0.0005667
52.39,544.592,0.1560000,1.6,-0.0008090
52.44,545.092,0.1560000,1.6,-0.0010639
52.49,545.592,0.1560000,1.599,-0.0005327
52.53,546.092,0.1560000,1.599,-0.0009736
52.58,546.592,0.1560000,1.599,-0.0008849
52.63,547.092,0.1560000,1.598,-0.0008576
52.68,547.592,0.1560000,1.598,-0.0004752
52.73,548.093,0.1560000,1.598,-0.0005223
52.78,548.593,0.1560000,1.598,-0.0010972
52.83,549.093,0.1560000,1.597,-0.0007522
52.88,549.593,0.1560000,1.597,-0.0003182
52.93,550.093,0.1560000,1.597,-0.0007969
52.98,550.593,0.1560000,1.596,-0.0003201
53.03,551.093,0.1560000,1.596,-0.0005542
53.08,551.593,0.1560000,1.596,0.0000723
53.13,552.093,0.1560000,1.596,-0.0003606
53.18,552.593,0.1560000,1.596,-0.0004071
53.23,553.093,0.1550000,1.595,-0.0005838
53.28,553.593,0.1550000,1.595,-0.0000536
53.33,554.094,0.1550000,1.595,-0.0001898
53.38,554.594,0.1550000,1.595,-0.0003862
53.43,555.094,0.1550000,1.594,-0.0005606
53.48,555.594,0.1550000,1.594,-0.0006082
53.53,556.094,0.1550000,1.594,-0.0003547
53.58,556.594,0.1550000,1.594,-0.0006667
53.63,557.094,0.1550000,1.593,-0.0005320
53.68,557.594,0.1550000,1.593,-0.0009698
53.73,558.094,0.1550000,1.592,-0.0005979
53.78,558.594,0.1550000,1.592,-0.0009297
53.83,559.094,0.1550000,1.592,-0.0006949
53.88,559.595,0.1550000,1.591,-0.0010884
53.93,560.095,0.1550000,1.591,-0.0013893
53.98,560.595,0.1550000,1.59,-0.0012309
54.03,561.095,0.1550000,1.59,-0.0008075
54.08,561.595,0.1550000,1.59,-0.0015403
54.13,562.095,0.1550000,1.589,-0.0014566
54.18,562.595,0.1550000,1.588,-0.0016183
54.23,563.095,0.1550000,1.588,-0.0010787
54.28,563.595,0.1550000,1.587,-0.0025698
54.33,564.095,0.1550000,1.587,-0.0003949
54.38,564.595,0.1550000,1.586,-0.0009573
54.43,565.096,0.1550000,1.586,-0.0007862
54.48,565.596,0.1550000,1.586,-0.0004715
54.53,566.096,0.1540000,1.585,-0.0009606
54.58,566.596,0.1540000,1.584,-0.0008976
54.63,567.096,0.1540000,1.584,-0.0007920
54.68,567.596,0.1540000,1.583,-0.0006169
54.73,568.096,0.1540000,1.583,-0.0006263
54.78,568.596,0.1540000,1.582,-0.0012510
54.83,569.096,0.1540000,1.582,-0.0017580
54.88,569.596,0.1540000,1.581,-0.0013300
54.93,570.096,0.1540000,1.58,-0.0015386
54.98,570.597,0.1540000,1.58,-0.0018924
55.03,571.097,0.1540000,1.579,-0.0015754
55.08,571.597,0.1540000,1.578,-0.0013657
55.13,572.097,0.1540000,1.577,-0.0015724
55.18,572.597,0.1540000,1.577,-0.0014486
55.23,573.097,0.1540000,1.576,-0.0016602
55.28,573.597,0.1530000,1.575,-0.0020260
55.33,574.097,0.1530000,1.574,-0.0040395
55.38,574.597,0.1530000,1.573,-0.0018146
55.43,575.097,0.1530000,1.572,-0.0021067
55.48,575.597,0.1530000,1.571,-0.0024538
55.53,576.098,0.1530000,1.569,-0.0028009
55.58,576.598,0.1530000,1.568,-0.0028734
55.63,577.098,0.1530000,1.567,-0.0026015
55.68,577.598,0.1530000,1.566,-0.0021582
55.73,578.098,0.1520000,1.564,-0.0028175
55.78,578.598,0.1520000,1.563,-0.0031021
55.83,579.098,0.1520000,1.562,-0.0038175
55.88,579.598,0.1520000,1.56,-0.0042505
55.93,580.098,0.1520000,1.558,-0.0029422
55.98,580.598,0.1520000,1.557,-0.0024127
56.03,581.098,0.1520000,1.555,-0.0021794
56.08,581.598,0.1510000,1.554,-0.0025477
56.13,582.099,0.1510000,1.552,-0.0026051
56.18,582.599,0.1510000,1.551,-0.0026820
56.23,583.099,0.1510000,1.549,-0.0034636
56.28,583.599,0.1510000,1.547,-0.0026464
56.33,584.099,0.1510000,1.546,-0.0030570
56.38,584.599,0.1500000,1.544,-0.0042876
56.43,585.099,0.1500000,1.542,-0.0030277
56.48,585.599,0.1500000,1.541,-0.0032704
56.53,586.099,0.1500000,1.539,-0.0031358
56.58,586.599,0.1500000,1.537,-0.0046617
56.63,587.099,0.1500000,1.535,-0.0035976
56.68,587.6,0.1490000,1.534,-0.0039392
56.73,588.1,0.1490000,1.532,-0.0040007
56.78,588.6,0.1490000,1.53,-0.0036763
56.83,589.1,0.1490000,1.528,-0.0035403
56.88,589.6,0.1490000,1.526,-0.0043485
56.92,590,0.1490000,1.524,-0.0044090