File: R/rHDPE_App/app/www/Output/TGA/Condensed_Data/Resin22_1_.csv
0.8300000,30,13.71,100.032,0.0008419
0.9000000,30.5001,13.71,100.035,0.0052857
0.9600000,31.0002,13.711,100.036,0.0043564
1.03,31.5003,13.711,100.038,0.0045374
1.08,32.0004,13.711,100.039,0.0013593
1.14,32.5004,13.711,100.041,-0.0008565
1.2,33.0005,13.711,100.042,0.0044340
1.26,33.5006,13.711,100.043,0.0020356
1.32,34.0007,13.712,100.044,0.0006713
1.37,34.5008,13.712,100.045,0.0043469
1.43,35.0009,13.712,100.046,-0.0005580
1.48,35.501,13.712,100.047,0.0030225
1.54,36.0011,13.712,100.047,0.0002501
1.59,36.5012,13.712,100.048,0.0021907
1.65,37.0013,13.712,100.049,0.0008424
1.7,37.5013,13.712,100.049,-0.0001480
1.75,38.0014,13.712,100.05,0.0030489
1.81,38.5015,13.713,100.051,0.0010788
1.86,39.0016,13.713,100.051,0.0020551
1.92,39.5017,13.713,100.052,0.0025869
1.97,40.0018,13.713,100.053,-0.0001461
2.02,40.5019,13.713,100.053,0.0005348
2.07,41.002,13.713,100.054,0.0022805
2.13,41.5021,13.713,100.055,0.0010658
2.18,42.0021,13.713,100.055,0.0005802
2.23,42.5022,13.713,100.056,0.0010618
2.29,43.0023,13.713,100.057,0.0022157
2.34,43.5024,13.713,100.057,0.0010100
2.39,44.0025,13.714,100.058,0.0005281
2.44,44.5026,13.714,100.059,0.0025416
2.49,45.0027,13.714,100.06,0.0025392
2.55,45.5028,13.714,100.06,0.0007654
2.6,46.0029,13.714,100.061,0.0006208
2.65,46.5029,13.714,100.062,0.0019545
2.7,47.003,13.714,100.063,0.0017146
2.76,47.5031,13.714,100.063,0.0019024
2.81,48.0032,13.714,100.064,0.0013300
2.86,48.5033,13.714,100.065,0.0014230
2.91,49.0034,13.715,100.065,0.0021329
2.96,49.5035,13.715,100.066,0.0014203
3.01,50.0036,13.715,100.067,0.0015138
3.07,50.5037,13.715,100.068,0.0009924
3.12,51.0038,13.715,100.068,0.0014161
3.17,51.5038,13.715,100.069,0.0016028
3.22,52.0039,13.715,100.07,0.0019776
3.27,52.504,13.715,100.07,0.0015058
3.32,53.0041,13.715,100.071,0.0013628
3.38,53.5042,13.715,100.072,0.0012204
3.43,54.0043,13.716,100.073,0.0014539
3.48,54.5044,13.716,100.073,0.0011713
3.53,55.0045,13.716,100.074,0.0011697
3.58,55.5046,13.716,100.074,0.0012159
3.63,56.0046,13.716,100.075,0.0013551
3.68,56.5047,13.716,100.076,0.0011677
3.73,57.0048,13.716,100.076,0.0015871
3.78,57.5049,13.716,100.077,0.0008863
3.84,58.005,13.716,100.077,0.0013516
3.89,58.5051,13.716,100.078,0.0012106
3.94,59.0052,13.716,100.079,0.0013490
3.99,59.5053,13.716,100.079,0.0014416
4.04,60.0054,13.717,100.08,0.0007897
4.09,60.5054,13.717,100.081,0.0010681
4.14,61.0055,13.717,100.081,0.0010210
4.19,61.5056,13.717,100.082,0.0008349
4.24,62.0057,13.717,100.082,0.0010658
4.29,62.5058,13.717,100.083,0.0011111
4.34,63.0059,13.717,100.084,0.0012954
4.39,63.506,13.717,100.084,0.0015259
4.44,64.0061,13.717,100.085,0.0010168
4.49,64.5062,13.717,100.085,0.0011084
4.54,65.0063,13.717,100.086,0.0012004
4.59,65.5063,13.717,100.086,0.0011998
4.65,66.0064,13.718,100.087,0.0013835
4.7,66.5065,13.718,100.088,0.0007835
4.75,67.0066,13.718,100.088,0.0009672
4.8,67.5067,13.718,100.088,0.0011971
4.85,68.0068,13.718,100.089,0.0010129
4.9,68.5069,13.718,100.09,0.0007364
4.95,69.007,13.718,100.09,0.0005981
5,69.5071,13.718,100.09,0.0008742
5.05,70.0071,13.718,100.091,0.0005983
5.1,70.5072,13.718,100.091,0.0009202
5.15,71.0073,13.718,100.092,0.0006897
5.2,71.5074,13.718,100.092,0.0006436
5.25,72.0075,13.718,100.093,0.0011023
5.3,72.5076,13.718,100.093,0.0011019
5.35,73.0077,13.718,100.093,0.0010551
5.4,73.5078,13.718,100.094,0.0011468
5.45,74.0079,13.719,100.094,0.0010087
5.5,74.5079,13.719,100.095,0.0005961
5.55,75.008,13.719,100.095,0.0005043
5.6,75.5081,13.719,100.096,0.0005961
5.65,76.0082,13.719,100.096,0.0004125
5.7,76.5083,13.719,100.096,0.0010080
5.75,77.0084,13.719,100.097,0.0011457
5.8,77.5085,13.719,100.097,0.0005956
5.85,78.0086,13.719,100.097,0.0011452
5.9,78.5087,13.719,100.098,0.0011454
5.95,79.0088,13.719,100.098,0.0005040
6,79.5088,13.719,100.098,0.0006416
6.05,80.0089,13.719,100.099,0.0005497
6.1,80.509,13.719,100.099,0.0005493
6.15,81.0091,13.719,100.099,0.0002748
6.2,81.5092,13.719,100.1,0.0005037
6.25,82.0093,13.719,100.1,0.0001831
6.3,82.5094,13.719,100.1,0.0003661
6.35,83.0095,13.719,100.101,0.0005951
6.4,83.5096,13.719,100.101,0.0002745
6.45,84.0096,13.719,100.101,0.0004577
6.5,84.5097,13.719,100.101,0.0006866
6.55,85.0098,13.72,100.102,0.0006867
6.6,85.5099,13.72,100.102,0.0009152
6.65,86.01,13.72,100.102,0.0010980
6.7,86.5101,13.72,100.103,0.0004574
6.75,87.0102,13.72,100.103,0.0008696
6.8,87.5103,13.72,100.103,0.0000916
6.85,88.0104,13.72,100.103,0.0004577
6.9,88.5104,13.72,100.103,0.0001373
6.95,89.0105,13.72,100.104,-0.0000915
7,89.5106,13.72,100.104,-0.0000000
7.05,90.0107,13.72,100.104,-0.0000915
7.1,90.5108,13.72,100.104,-0.0005950
7.15,91.0109,13.72,100.104,0.0000916
7.2,91.511,13.72,100.104,0.0005493
7.25,92.0111,13.72,100.104,0.0002288
7.3,92.5112,13.72,100.105,0.0002288
7.35,93.0113,13.72,100.105,0.0005489
7.4,93.5113,13.72,100.105,0.0001830
7.45,94.0114,13.72,100.105,0.0007319
7.5,94.5115,13.72,100.105,0.0004120
7.55,95.0116,13.72,100.105,0.0000458
7.6,95.5117,13.72,100.106,0.0004578
7.65,96.0118,13.72,100.106,0.0002289
7.7,96.5119,13.72,100.106,-0.0001831
7.75,97.012,13.72,100.106,0.0000916
7.8,97.5121,13.72,100.106,-0.0000458
7.85,98.0121,13.72,100.106,-0.0000916
7.9,98.5122,13.72,100.106,0.0002289
7.95,99.0123,13.72,100.106,-0.0002289
8,99.5124,13.72,100.106,-0.0002288
8.05,100.013,13.72,100.106,0.0001831
8.1,100.513,13.72,100.107,-0.0000915
8.15,101.013,13.72,100.107,0.0000000
8.2,101.513,13.72,100.107,0.0003660
8.25,102.013,13.72,100.107,0.0003202
8.3,102.513,13.72,100.107,0.0003201
8.35,103.013,13.72,100.107,0.0002744
8.4,103.513,13.72,100.107,0.0003664
8.45,104.013,13.72,100.107,0.0001828
8.5,104.513,13.72,100.107,-0.0002286
8.55,105.013,13.72,100.107,0.0011437
8.6,105.513,13.72,100.107,0.0001830
8.65,106.014,13.72,100.107,-0.0000000
8.7,106.514,13.72,100.107,0.0005035
8.75,107.014,13.72,100.107,0.0000458
8.8,107.514,13.72,100.107,0.0000458
8.85,108.014,13.72,100.107,0.0006866
8.9,108.514,13.72,100.107,-0.0003206
8.95,109.014,13.72,100.107,-0.0005038
9,109.514,13.72,100.107,-0.0004120
9.05,110.014,13.72,100.107,-0.0002289
9.1,110.514,13.72,100.107,-0.0004580
9.15,111.014,13.72,100.107,-0.0000000
9.2,111.515,13.72,100.107,-0.0003660
9.25,112.015,13.72,100.106,-0.0006859
9.3,112.515,13.72,100.106,0.0003204
9.35,113.015,13.72,100.106,-0.0001831
9.4,113.515,13.72,100.106,-0.0005037
9.45,114.015,13.72,100.106,0.0000458
9.5,114.515,13.72,100.106,0.0000001
9.55,115.015,13.72,100.106,0.0005498
9.6,115.515,13.72,100.106,-0.0000458
9.65,116.015,13.72,100.106,0.0002292
9.7,116.515,13.72,100.106,-0.0002292
9.75,117.016,13.72,100.106,-0.0004126
9.8,117.516,13.72,100.106,-0.0003670
9.85,118.016,13.72,100.106,0.0002294
9.9,118.516,13.72,100.105,0.0000917
9.95,119.016,13.72,100.105,0.0000459
10,119.516,13.72,100.105,0.0005960
10.05,120.016,13.72,100.105,-0.0000917
10.1,120.516,13.72,100.105,-0.0001833
10.15,121.016,13.72,100.105,0.0000917
10.2,121.516,13.72,100.105,-0.0007337
10.25,122.016,13.72,100.105,0.0000917
10.3,122.517,13.72,100.105,-0.0001834
10.35,123.017,13.72,100.105,0.0005503
10.4,123.517,13.72,100.105,-0.0000459
10.45,124.017,13.72,100.105,-0.0003217
10.5,124.517,13.72,100.104,-0.0004598
10.55,125.017,13.72,100.104,0.0000920
10.6,125.517,13.72,100.104,0.0001838
10.65,126.017,13.72,100.104,0.0000000
10.7,126.517,13.72,100.104,0.0001374
10.75,127.017,13.72,100.104,-0.0006408
10.8,127.517,13.72,100.104,0.0001372
10.85,128.018,13.72,100.104,-0.0003202
10.9,128.518,13.72,100.104,-0.0001373
10.95,129.018,13.72,100.104,-0.0004576
11,129.518,13.72,100.104,0.0001373
11.05,130.018,13.72,100.104,-0.0003664
11.1,130.518,13.72,100.104,-0.0005951
11.15,131.018,13.72,100.104,-0.0000916
11.2,131.518,13.72,100.104,-0.0006865
11.25,132.018,13.72,100.103,0.0001373
11.3,132.518,13.72,100.103,-0.0001831
11.35,133.018,13.72,100.103,-0.0000915
11.4,133.518,13.72,100.103,-0.0010510
11.45,134.019,13.72,100.102,-0.0004112
11.5,134.519,13.72,100.102,-0.0007766
11.55,135.019,13.72,100.102,-0.0006852
11.6,135.519,13.719,100.101,-0.0015517
11.65,136.019,13.719,100.1,-0.0006386
11.7,136.519,13.719,100.1,-0.0015957
11.75,137.019,13.719,100.099,-0.0027790
11.8,137.519,13.719,100.098,-0.0015487
11.85,138.019,13.719,100.097,-0.0018198
11.9,138.519,13.719,100.096,-0.0018193
11.95,139.019,13.719,100.095,-0.0025000
12,139.52,13.718,100.093,-0.0025443
12.05,140.02,13.718,100.092,-0.0020454
12.1,140.52,13.718,100.091,-0.0025933
12.15,141.02,13.718,100.09,-0.0017752
12.2,141.52,13.718,100.089,-0.0016857
12.25,142.02,13.718,100.088,-0.0019605
12.3,142.52,13.717,100.087,-0.0021005
12.35,143.02,13.717,100.086,-0.0016918
12.4,143.52,13.717,100.085,-0.0017394
12.45,144.02,13.717,100.084,-0.0020633
12.5,144.52,13.717,100.083,-0.0016062
12.55,145.021,13.717,100.082,-0.0014692
12.6,145.521,13.717,100.081,-0.0011489
12.65,146.021,13.717,100.08,-0.0017918
12.7,146.521,13.717,100.08,-0.0014250
12.75,147.021,13.716,100.079,-0.0013319
12.8,147.521,13.716,100.078,-0.0014699
12.85,148.021,13.716,100.077,-0.0014699
12.9,148.521,13.716,100.077,-0.0012861
12.95,149.021,13.716,100.076,-0.0013323
13,149.521,13.716,100.075,-0.0016078
13.05,150.021,13.716,100.074,-0.0013324
13.1,150.522,13.716,100.073,-0.0013319
13.15,151.022,13.716,100.073,-0.0011021
13.2,151.522,13.715,100.072,-0.0013316
13.25,152.022,13.715,100.071,-0.0018826
13.3,152.522,13.715,100.07,-0.0010560
13.35,153.022,13.715,100.07,-0.0016988
13.4,153.522,13.715,100.069,-0.0013774
13.45,154.022,13.715,100.068,-0.0013777
13.5,154.522,13.715,100.067,-0.0014686
13.55,155.022,13.715,100.067,-0.0011934
13.6,155.522,13.715,100.066,-0.0016524
13.65,156.023,13.715,100.065,-0.0008721
13.7,156.523,13.714,100.065,-0.0015602
13.75,157.023,13.714,100.064,-0.0014226
13.8,157.523,13.714,100.063,-0.0018811
13.85,158.023,13.714,100.063,-0.0011009
13.9,158.523,13.714,100.062,-0.0010092
13.95,159.023,13.714,100.061,-0.0016056
14,159.523,13.714,100.06,-0.0013299
14.05,160.023,13.714,100.06,-0.0012377
14.1,160.523,13.714,100.059,-0.0012370
14.15,161.023,13.714,100.058,-0.0015575
14.2,161.523,13.713,100.057,-0.0014652
14.25,162.024,13.713,100.056,-0.0013741
14.3,162.524,13.713,100.055,-0.0012821
14.35,163.024,13.713,100.055,-0.0019689
14.4,163.524,13.713,100.054,-0.0016949
14.45,164.024,13.713,100.053,-0.0015116
14.5,164.524,13.713,100.052,-0.0024271
14.55,165.024,13.713,100.051,-0.0016949
14.6,165.524,13.712,100.05,-0.0017882
14.65,166.024,13.712,100.049,-0.0011919
14.7,166.524,13.712,100.048,-0.0018332
14.75,167.024,13.712,100.047,-0.0016506
14.8,167.525,13.712,100.046,-0.0020637
14.85,168.025,13.712,100.045,-0.0016051
14.9,168.525,13.712,100.044,-0.0018802
14.95,169.025,13.712,100.044,-0.0015131
15,169.525,13.711,100.042,-0.0023373
15.05,170.025,13.711,100.042,-0.0015585
15.1,170.525,13.711,100.041,-0.0016962
15.15,171.025,13.711,100.04,-0.0019713
15.2,171.525,13.711,100.039,-0.0020165
15.25,172.025,13.711,100.038,-0.0021089
15.3,172.525,13.711,100.036,-0.0022921
15.35,173.026,13.71,100.035,-0.0016965
15.4,173.526,13.71,100.034,-0.0021087
15.45,174.026,13.71,100.033,-0.0017869
15.5,174.526,13.71,100.032,-0.0020152
15.55,175.026,13.71,100.031,-0.0022900
15.6,175.526,13.71,100.03,-0.0022452
15.65,176.026,13.71,100.029,-0.0025665
15.7,176.526,13.709,100.028,-0.0022908
15.75,177.026,13.709,100.027,-0.0022909
15.8,177.526,13.709,100.026,-0.0016499
15.85,178.026,13.709,100.025,-0.0027022
15.9,178.527,13.709,100.023,-0.0026581
15.95,179.027,13.709,100.022,-0.0024293
16,179.527,13.708,100.021,-0.0029344
16.05,180.027,13.708,100.02,-0.0019255
16.1,180.527,13.708,100.019,-0.0023369
16.15,181.027,13.708,100.018,-0.0018326
16.2,181.527,13.708,100.017,-0.0021530
16.25,182.027,13.708,100.016,-0.0024271
16.3,182.527,13.708,100.014,-0.0022900
16.35,183.027,13.707,100.013,-0.0024267
16.4,183.527,13.707,100.012,-0.0019689
16.45,184.028,13.707,100.011,-0.0025183
16.5,184.528,13.707,100.01,-0.0021062
16.55,185.028,13.707,100.008,-0.0026104
16.6,185.528,13.707,100.007,-0.0022904
16.65,186.028,13.706,100.006,-0.0025195
16.7,186.528,13.706,100.005,-0.0022909
16.75,187.028,13.706,100.003,-0.0023362
16.8,187.528,13.706,100.002,-0.0020162
16.85,188.028,13.706,100.001,-0.0022450
16.9,188.528,13.706,100,-0.0028871
16.95,189.028,13.705,99.998,-0.0021995
17.01,189.528,13.705,99.997,-0.0021076
17.06,190.029,13.705,99.996,-0.0026107
17.11,190.529,13.705,99.994,-0.0026557
17.16,191.029,13.705,99.993,-0.0024274
17.21,191.529,13.704,99.992,-0.0030228
17.26,192.029,13.704,99.991,-0.0024734
17.31,192.529,13.704,99.989,-0.0027946
17.36,193.029,13.704,99.988,-0.0027032
17.41,193.529,13.704,99.987,-0.0026116
17.46,194.029,13.704,99.986,-0.0025653
17.51,194.529,13.703,99.984,-0.0027484
17.56,195.029,13.703,99.983,-0.0035737
17.61,195.53,13.703,99.981,-0.0024736
17.66,196.03,13.703,99.98,-0.0028880
17.71,196.53,13.703,99.979,-0.0023827
17.76,197.03,13.703,99.977,-0.0027034
17.81,197.53,13.702,99.976,-0.0027958
17.86,198.03,13.702,99.975,-0.0033004
17.91,198.53,13.702,99.973,-0.0030240
17.96,199.03,13.702,99.972,-0.0023831
18.01,199.53,13.702,99.971,-0.0028865
18.06,200.03,13.701,99.969,-0.0025658
18.11,200.53,13.701,99.968,-0.0025648
18.16,201.031,13.701,99.966,-0.0024274
18.21,201.531,13.701,99.965,-0.0021530
18.26,202.031,13.701,99.964,-0.0027941
18.31,202.531,13.7,99.962,-0.0019245
18.36,203.031,13.7,99.961,-0.0033471
18.41,203.531,13.7,99.959,-0.0033914
18.46,204.031,13.7,99.958,-0.0027948
18.51,204.531,13.7,99.956,-0.0030714
18.56,205.031,13.699,99.955,-0.0027506
18.61,205.531,13.699,99.953,-0.0028864
18.66,206.031,13.699,99.952,-0.0027943
18.71,206.532,13.699,99.951,-0.0023366
18.76,207.032,13.699,99.949,-0.0032081
18.81,207.532,13.698,99.948,-0.0030706
18.86,208.032,13.698,99.947,-0.0027956
18.91,208.532,13.698,99.945,-0.0037132
18.96,209.032,13.698,99.944,-0.0027964
19.01,209.532,13.698,99.942,-0.0031645
19.06,210.032,13.697,99.941,-0.0031643
19.11,210.532,13.697,99.939,-0.0032557
19.16,211.032,13.697,99.938,-0.0024298
19.21,211.532,13.697,99.936,-0.0026591
19.26,212.033,13.697,99.935,-0.0028410
19.31,212.533,13.696,99.933,-0.0034356
19.36,213.033,13.696,99.932,-0.0027485
19.41,213.533,13.696,99.93,-0.0027024
19.46,214.033,13.696,99.929,-0.0037071
19.51,214.533,13.696,99.927,-0.0029754
19.56,215.033,13.695,99.926,-0.0036616
19.61,215.533,13.695,99.924,-0.0034324
19.66,216.033,13.695,99.923,-0.0029762
19.71,216.533,13.695,99.921,-0.0032045
19.76,217.033,13.695,99.919,-0.0033899
19.81,217.533,13.694,99.918,-0.0028854
19.86,218.034,13.694,99.916,-0.0032068
19.91,218.534,13.694,99.915,-0.0027039
19.96,219.034,13.694,99.913,-0.0030698
20.01,219.534,13.693,99.912,-0.0033898
20.06,220.034,13.693,99.91,-0.0030234
20.11,220.534,13.693,99.909,-0.0031602
20.16,221.034,13.693,99.907,-0.0030234
20.21,221.534,13.693,99.906,-0.0026118
20.26,222.034,13.692,99.904,-0.0030697
20.31,222.534,13.692,99.903,-0.0033899
20.36,223.034,13.692,99.901,-0.0027951
20.41,223.535,13.692,99.9,-0.0028873
20.46,224.035,13.692,99.898,-0.0029339
20.51,224.535,13.691,99.896,-0.0035740
20.56,225.035,13.691,99.895,-0.0033904
20.61,225.535,13.691,99.893,-0.0029784
20.66,226.035,13.691,99.892,-0.0033907
20.71,226.535,13.691,99.89,-0.0032519
20.76,227.035,13.69,99.888,-0.0028859
20.81,227.535,13.69,99.887,-0.0035733
20.86,228.035,13.69,99.885,-0.0029775
20.91,228.535,13.69,99.884,-0.0028407
20.96,229.036,13.689,99.882,-0.0032972
21.01,229.536,13.689,99.881,-0.0031599
21.06,230.036,13.689,99.879,-0.0029776
21.11,230.536,13.689,99.877,-0.0029310
21.16,231.036,13.689,99.876,-0.0035721
21.21,231.536,13.688,99.874,-0.0027948
21.26,232.036,13.688,99.873,-0.0033899
21.31,232.536,13.688,99.871,-0.0027473
21.36,233.036,13.688,99.869,-0.0029775
21.41,233.536,13.687,99.868,-0.0029312
21.46,234.036,13.687,99.866,-0.0033456
21.51,234.537,13.687,99.864,-0.0030683
21.56,235.037,13.687,99.862,-0.0034808
21.61,235.537,13.687,99.861,-0.0029781
21.66,236.037,13.686,99.859,-0.0036195
21.71,236.537,13.686,99.857,-0.0032974
21.76,237.037,13.686,99.856,-0.0031585
21.81,237.537,13.686,99.854,-0.0027473
21.86,238.037,13.685,99.853,-0.0033455
21.91,238.537,13.685,99.851,-0.0031608
21.96,239.037,13.685,99.849,-0.0031144
22.01,239.537,13.685,99.847,-0.0030256
22.06,240.038,13.684,99.846,-0.0032083
22.11,240.538,13.684,99.844,-0.0033462
22.16,241.038,13.684,99.842,-0.0032539
22.21,241.538,13.684,99.841,-0.0035770
22.26,242.038,13.684,99.839,-0.0033920
22.31,242.538,13.683,99.837,-0.0034840
22.36,243.038,13.683,99.836,-0.0032075
22.41,243.538,13.683,99.834,-0.0030692
22.46,244.038,13.683,99.832,-0.0030692
22.51,244.538,13.682,99.831,-0.0034792
22.56,245.038,13.682,99.829,-0.0031136
22.61,245.538,13.682,99.827,-0.0031579
22.66,246.039,13.682,99.825,-0.0037078
22.71,246.539,13.681,99.823,-0.0035720
22.76,247.039,13.681,99.822,-0.0038919
22.81,247.539,13.681,99.82,-0.0033434
22.86,248.039,13.681,99.818,-0.0041228
22.91,248.539,13.68,99.816,-0.0038479
22.96,249.039,13.68,99.815,-0.0032518
23.01,249.539,13.68,99.813,-0.0032066
23.06,250.039,13.68,99.811,-0.0036636
23.11,250.539,13.679,99.809,-0.0034347
23.16,251.039,13.679,99.808,-0.0033442
23.21,251.54,13.679,99.806,-0.0039367
23.26,252.04,13.679,99.804,-0.0035721
23.31,252.54,13.678,99.802,-0.0038056
23.36,253.04,13.678,99.8,-0.0037615
23.41,253.54,13.678,99.799,-0.0034879
23.46,254.04,13.678,99.797,-0.0030298
23.51,254.54,13.677,99.795,-0.0039945
23.56,255.04,13.677,99.793,-0.0033960
23.61,255.54,13.677,99.791,-0.0035780
23.66,256.04,13.677,99.79,-0.0034842
23.71,256.54,13.677,99.788,-0.0038038
23.76,257.041,13.676,99.786,-0.0037568
23.81,257.541,13.676,99.784,-0.0040271
23.86,258.041,13.676,99.782,-0.0034799
23.91,258.541,13.675,99.78,-0.0035714
23.96,259.041,13.675,99.778,-0.0038462
24.01,259.541,13.675,99.777,-0.0038004
24.06,260.041,13.675,99.775,-0.0041209
24.11,260.541,13.674,99.773,-0.0037546
24.16,261.041,13.674,99.771,-0.0034785
24.21,261.541,13.674,99.769,-0.0038483
24.26,262.041,13.674,99.767,-0.0038032
24.31,262.542,13.673,99.765,-0.0033449
24.36,263.042,13.673,99.763,-0.0043538
24.41,263.542,13.673,99.761,-0.0038518
24.46,264.042,13.673,99.759,-0.0037156
24.52,264.542,13.672,99.757,-0.0038968
24.57,265.042,13.672,99.755,-0.0043538
24.62,265.542,13.672,99.753,-0.0033883
24.67,266.042,13.671,99.751,-0.0038019
24.72,266.542,13.671,99.749,-0.0040751
24.77,267.042,13.671,99.747,-0.0047161
24.82,267.542,13.671,99.745,-0.0036643
24.87,268.043,13.67,99.743,-0.0038927
24.92,268.543,13.67,99.741,-0.0038919
24.97,269.043,13.67,99.739,-0.0037088
25.02,269.543,13.67,99.737,-0.0039835
25.07,270.043,13.669,99.735,-0.0042108
25.12,270.543,13.669,99.733,-0.0036185
25.17,271.043,13.669,99.731,-0.0041247
25.22,271.543,13.668,99.729,-0.0043040
25.27,272.043,13.668,99.727,-0.0044414
25.32,272.543,13.668,99.725,-0.0039393
25.37,273.043,13.668,99.723,-0.0038462
25.42,273.543,13.667,99.721,-0.0040773
25.47,274.044,13.667,99.718,-0.0038004
25.52,274.544,13.667,99.716,-0.0044398
25.57,275.044,13.666,99.714,-0.0038483
25.62,275.544,13.666,99.712,-0.0044431
25.67,276.044,13.666,99.71,-0.0038004
25.72,276.544,13.666,99.708,-0.0042125
25.77,277.044,13.665,99.706,-0.0042110
25.82,277.544,13.665,99.704,-0.0038919
25.87,278.044,13.665,99.702,-0.0047161
25.92,278.544,13.664,99.7,-0.0043064
25.97,279.044,13.664,99.698,-0.0046261
26.02,279.545,13.664,99.696,-0.0042606
26.07,280.045,13.664,99.693,-0.0043040
26.12,280.545,13.663,99.691,-0.0042605
26.17,281.045,13.663,99.689,-0.0040751
26.22,281.545,13.663,99.687,-0.0046270
26.27,282.045,13.662,99.685,-0.0042582
26.32,282.545,13.662,99.682,-0.0049451
26.37,283.045,13.662,99.68,-0.0038955
26.42,283.545,13.661,99.678,-0.0054516
26.47,284.045,13.661,99.676,-0.0042155
26.52,284.545,13.661,99.674,-0.0046730
26.57,285.046,13.661,99.672,-0.0046287
26.62,285.546,13.66,99.669,-0.0048104
26.67,286.046,13.66,99.667,-0.0046288
26.72,286.546,13.66,99.665,-0.0045829
26.77,287.046,13.659,99.663,-0.0048561
26.82,287.546,13.659,99.661,-0.0043522
26.87,288.046,13.659,99.658,-0.0050412
26.92,288.546,13.658,99.656,-0.0040773
26.97,289.046,13.658,99.654,-0.0045829
27.02,289.546,13.658,99.652,-0.0042172
27.07,290.046,13.658,99.65,-0.0050459
27.12,290.547,13.657,99.648,-0.0040812
27.17,291.047,13.657,99.645,-0.0046330
27.22,291.547,13.657,99.643,-0.0040344
27.27,292.047,13.656,99.641,-0.0044471
27.32,292.547,13.656,99.639,-0.0046789
27.37,293.047,13.656,99.637,-0.0045855
27.42,293.547,13.656,99.635,-0.0049046
27.47,294.047,13.655,99.632,-0.0043981
27.52,294.547,13.655,99.63,-0.0044437
27.57,295.047,13.655,99.628,-0.0038496
27.62,295.547,13.654,99.626,-0.0043515
27.67,296.048,13.654,99.624,-0.0044408
27.72,296.548,13.654,99.621,-0.0044414
27.77,297.048,13.653,99.619,-0.0050385
27.82,297.548,13.653,99.617,-0.0044397
27.87,298.048,13.653,99.614,-0.0042559
27.92,298.548,13.652,99.612,-0.0046245
27.97,299.048,13.652,99.61,-0.0043498
28.02,299.548,13.652,99.608,-0.0047161
28.07,300.048,13.651,99.605,-0.0042582
28.12,300.548,13.651,99.603,-0.0046245
28.17,301.048,13.651,99.601,-0.0051712
28.22,301.548,13.651,99.598,-0.0046703
28.27,302.049,13.65,99.596,-0.0054965
28.32,302.549,13.65,99.593,-0.0050386
28.37,303.049,13.65,99.591,-0.0049908
28.42,303.549,13.649,99.589,-0.0044447
28.47,304.049,13.649,99.587,-0.0044454
28.52,304.549,13.649,99.584,-0.0049495
28.57,305.049,13.648,99.582,-0.0047655
28.62,305.549,13.648,99.58,-0.0046694
28.67,306.049,13.648,99.577,-0.0047619
28.72,306.549,13.647,99.575,-0.0051264
28.77,307.049,13.647,99.572,-0.0045755
28.82,307.55,13.647,99.57,-0.0049881
28.87,308.05,13.646,99.567,-0.0048535
28.92,308.55,13.646,99.565,-0.0045788
28.97,309.05,13.646,99.563,-0.0049478
29.02,309.55,13.645,99.56,-0.0048077
29.07,310.05,13.645,99.558,-0.0050824
29.12,310.55,13.645,99.555,-0.0045355
29.17,311.05,13.644,99.553,-0.0049936
29.22,311.55,13.644,99.55,-0.0053592
29.27,312.05,13.644,99.548,-0.0048993
29.32,312.55,13.643,99.545,-0.0054487
29.37,313.051,13.643,99.543,-0.0050357
29.42,313.551,13.643,99.54,-0.0049433
29.47,314.051,13.642,99.538,-0.0049863
29.52,314.551,13.642,99.535,-0.0051674
29.57,315.051,13.642,99.533,-0.0054873
29.62,315.551,13.641,99.53,-0.0052150
29.67,316.051,13.641,99.528,-0.0053960
29.72,316.551,13.641,99.525,-0.0048474
29.77,317.051,13.64,99.523,-0.0047593
29.82,317.551,13.64,99.52,-0.0056724
29.87,318.051,13.639,99.517,-0.0048490
29.92,318.552,13.639,99.515,-0.0048993
29.97,319.052,13.639,99.512,-0.0043040
30.02,319.552,13.638,99.51,-0.0049415
30.07,320.052,13.638,99.507,-0.0050824
30.12,320.552,13.638,99.505,-0.0044414
30.17,321.052,13.637,99.502,-0.0052695
30.22,321.552,13.637,99.5,-0.0047645
30.27,322.052,13.637,99.497,-0.0047662
30.32,322.552,13.636,99.495,-0.0047221
30.37,323.052,13.636,99.492,-0.0054070
30.42,323.552,13.636,99.489,-0.0049926
30.47,324.053,13.635,99.487,-0.0052226
30.52,324.553,13.635,99.484,-0.0050824
30.57,325.053,13.635,99.482,-0.0048077
30.62,325.553,13.634,99.479,-0.0053571
30.67,326.053,13.634,99.477,-0.0047619
30.72,326.553,13.633,99.474,-0.0052170
30.77,327.053,13.633,99.471,-0.0050824
30.82,327.553,13.633,99.469,-0.0053571
30.87,328.053,13.632,99.466,-0.0047619
30.92,328.553,13.632,99.463,-0.0053114
30.97,329.053,13.632,99.461,-0.0049451
31.02,329.553,13.631,99.458,-0.0057692
31.07,330.054,13.631,99.455,-0.0056777
31.12,330.554,13.631,99.453,-0.0054506
31.17,331.054,13.63,99.45,-0.0059569
31.22,331.554,13.63,99.447,-0.0054945
31.27,332.054,13.629,99.444,-0.0059098
31.32,332.554,13.629,99.442,-0.0055912
31.37,333.054,13.629,99.439,-0.0062281
31.42,333.554,13.628,99.436,-0.0054975
31.47,334.054,13.628,99.434,-0.0056808
31.52,334.554,13.628,99.431,-0.0059087
31.57,335.054,13.627,99.428,-0.0055403
31.62,335.555,13.627,99.425,-0.0058641
31.67,336.055,13.626,99.422,-0.0049470
31.72,336.555,13.626,99.42,-0.0063164
31.77,337.055,13.626,99.417,-0.0054975
31.82,337.555,13.625,99.414,-0.0054487
31.87,338.055,13.625,99.411,-0.0059982
31.92,338.555,13.624,99.408,-0.0059066
31.97,339.055,13.624,99.405,-0.0059066
32.02,339.555,13.624,99.402,-0.0053551
32.07,340.055,13.623,99.399,-0.0059033
32.12,340.555,13.623,99.397,-0.0057671
32.17,341.056,13.622,99.394,-0.0054487
32.22,341.556,13.622,99.391,-0.0058608
32.27,342.056,13.622,99.388,-0.0059098
32.32,342.556,13.621,99.385,-0.0060026
32.37,343.056,13.621,99.382,-0.0054487
32.42,343.556,13.62,99.379,-0.0056338
32.47,344.056,13.62,99.376,-0.0059547
32.52,344.556,13.62,99.373,-0.0062753
32.57,345.056,13.619,99.37,-0.0057725
32.62,345.556,13.619,99.367,-0.0060462
32.67,346.056,13.618,99.363,-0.0056319
32.72,346.557,13.618,99.36,-0.0065501
32.77,347.057,13.617,99.357,-0.0062763
32.82,347.557,13.617,99.354,-0.0061869
32.87,348.057,13.617,99.351,-0.0063681
32.92,348.557,13.616,99.348,-0.0059066
32.97,349.057,13.616,99.344,-0.0060920
33.02,349.557,13.615,99.341,-0.0071009
33.07,350.057,13.615,99.338,-0.0063679
33.12,350.557,13.614,99.334,-0.0064585
33.17,351.057,13.614,99.331,-0.0061389
33.22,351.557,13.613,99.328,-0.0065018
33.27,352.058,13.613,99.325,-0.0069597
33.32,352.558,13.613,99.322,-0.0058575
33.37,353.058,13.612,99.318,-0.0071389
33.42,353.558,13.612,99.315,-0.0065861
33.47,354.058,13.611,99.311,-0.0069560
33.52,354.558,13.611,99.308,-0.0067271
33.57,355.058,13.61,99.305,-0.0075092
33.62,355.558,13.61,99.301,-0.0070513
33.67,356.058,13.609,99.297,-0.0073758
33.72,356.558,13.609,99.294,-0.0076036
33.77,357.058,13.608,99.29,-0.0073718
33.82,357.558,13.608,99.287,-0.0074176
33.87,358.059,13.607,99.283,-0.0068197
33.92,358.559,13.607,99.279,-0.0075050
33.97,359.059,13.606,99.276,-0.0075509
34.02,359.559,13.606,99.272,-0.0074135
34.07,360.059,13.605,99.268,-0.0078297
34.12,360.559,13.605,99.265,-0.0074176
34.17,361.059,13.604,99.261,-0.0068681
34.22,361.559,13.604,99.257,-0.0068223
34.27,362.059,13.603,99.254,-0.0072829
34.32,362.559,13.603,99.25,-0.0076894
34.37,363.059,13.602,99.246,-0.0071468
34.42,363.56,13.602,99.242,-0.0080099
34.47,364.06,13.601,99.238,-0.0072802
34.52,364.56,13.601,99.234,-0.0083715
34.57,365.06,13.6,99.23,-0.0077381
34.62,365.56,13.6,99.226,-0.0078225
34.67,366.06,13.599,99.222,-0.0081885
34.72,366.56,13.598,99.218,-0.0080084
34.77,367.06,13.598,99.214,-0.0079212
34.82,367.56,13.597,99.21,-0.0078755
34.87,368.06,13.597,99.206,-0.0081960
34.92,368.56,13.596,99.201,-0.0082342
34.97,369.061,13.596,99.197,-0.0089286
35.02,369.561,13.595,99.193,-0.0081960
35.07,370.061,13.594,99.189,-0.0087912
35.12,370.561,13.594,99.184,-0.0083791
35.17,371.061,13.593,99.18,-0.0090201
35.22,371.561,13.593,99.176,-0.0090251
35.27,372.061,13.592,99.171,-0.0088370
35.32,372.561,13.591,99.166,-0.0094816
35.37,373.061,13.591,99.162,-0.0092525
35.42,373.561,13.59,99.157,-0.0098901
35.47,374.061,13.589,99.153,-0.0093001
35.52,374.562,13.589,99.148,-0.0094322
35.57,375.062,13.588,99.143,-0.0092033
35.62,375.562,13.587,99.138,-0.0097017
35.67,376.062,13.587,99.133,-0.0097035
35.72,376.562,13.586,99.129,-0.0098371
35.77,377.062,13.585,99.124,-0.0098371
35.82,377.562,13.585,99.118,-0.0099249
35.87,378.062,13.584,99.113,-0.0103843
35.92,378.562,13.583,99.108,-0.0103842
35.97,379.062,13.583,99.103,-0.0108836
36.02,379.562,13.582,99.097,-0.0108834
36.07,380.063,13.581,99.092,-0.0109273
36.12,380.563,13.58,99.086,-0.0115259
36.17,381.063,13.58,99.081,-0.0114322
36.22,381.563,13.579,99.075,-0.0116651
36.27,382.063,13.578,99.069,-0.0114407
36.32,382.563,13.577,99.064,-0.0119462
36.37,383.063,13.576,99.058,-0.0123101
36.42,383.563,13.576,99.051,-0.0120835
36.47,384.063,13.575,99.045,-0.0126326
36.52,384.563,13.574,99.039,-0.0129121
36.57,385.063,13.573,99.032,-0.0129579
36.62,385.563,13.572,99.026,-0.0135915
36.67,386.064,13.571,99.019,-0.0133700
36.72,386.564,13.57,99.012,-0.0134689
36.77,387.064,13.569,99.005,-0.0138787
36.82,387.564,13.568,98.998,-0.0143367
36.87,388.064,13.567,98.991,-0.0142857
36.92,388.564,13.566,98.984,-0.0143773
36.97,389.064,13.565,98.976,-0.0148754
37.02,389.564,13.564,98.969,-0.0156051
37.07,390.064,13.563,98.961,-0.0157335
37.12,390.564,13.562,98.953,-0.0161053
37.17,391.064,13.561,98.945,-0.0163799
37.22,391.565,13.56,98.936,-0.0170269
37.27,392.065,13.559,98.928,-0.0170694
37.32,392.565,13.557,98.919,-0.0170726
37.37,393.065,13.556,98.91,-0.0183608
37.42,393.565,13.555,98.901,-0.0180762
37.47,394.065,13.554,98.892,-0.0191605
37.52,394.565,13.552,98.882,-0.0195406
37.57,395.065,13.551,98.873,-0.0194948
37.62,395.565,13.55,98.863,-0.0198828
37.67,396.065,13.548,98.853,-0.0196609
37.72,396.565,13.547,98.843,-0.0207037
37.77,397.066,13.546,98.832,-0.0206120
37.82,397.566,13.544,98.822,-0.0218407
37.87,398.066,13.543,98.811,-0.0217033
37.92,398.566,13.541,98.8,-0.0222985
37.97,399.066,13.54,98.789,-0.0228480
38.02,399.566,13.538,98.778,-0.0228811
38.07,400.066,13.536,98.766,-0.0236134
38.12,400.566,13.535,98.754,-0.0238422
38.17,401.066,13.533,98.742,-0.0249406
38.22,401.566,13.531,98.73,-0.0250000
38.27,402.066,13.53,98.717,-0.0250916
38.32,402.567,13.528,98.704,-0.0260167
38.37,403.067,13.526,98.691,-0.0259930
38.42,403.567,13.524,98.678,-0.0273252
38.47,404.067,13.522,98.664,-0.0272337
38.52,404.567,13.521,98.65,-0.0282812
38.57,405.067,13.519,98.636,-0.0283777
38.62,405.567,13.517,98.621,-0.0290293
38.67,406.067,13.515,98.607,-0.0296703
38.72,406.567,13.513,98.591,-0.0304945
38.77,407.067,13.51,98.576,-0.0313875
38.82,407.567,13.508,98.56,-0.0320232
38.87,408.068,13.506,98.544,-0.0332294
38.92,408.568,13.504,98.527,-0.0349230
38.97,409.068,13.501,98.509,-0.0354396
39.02,409.568,13.499,98.491,-0.0361981
39.07,410.068,13.496,98.473,-0.0364726
39.12,410.568,13.494,98.454,-0.0380992
39.17,411.068,13.491,98.435,-0.0391484
39.22,411.568,13.488,98.415,-0.0402930
39.27,412.068,13.486,98.394,-0.0420098
39.32,412.568,13.483,98.373,-0.0435201
39.37,413.068,13.48,98.351,-0.0455876
39.42,413.568,13.476,98.328,-0.0477390
39.47,414.069,13.473,98.304,-0.0488830
39.52,414.569,13.47,98.279,-0.0502562
39.57,415.069,13.466,98.254,-0.0508877
39.62,415.569,13.463,98.228,-0.0526725
39.67,416.069,13.459,98.201,-0.0552353
39.72,416.569,13.455,98.173,-0.0570761
39.77,417.069,13.451,98.144,-0.0594236
39.82,417.569,13.447,98.114,-0.0611162
39.87,418.069,13.443,98.083,-0.0637919
39.92,418.569,13.438,98.051,-0.0666971
39.97,419.069,13.434,98.017,-0.0683647
40.02,419.57,13.429,97.982,-0.0728728
40.07,420.07,13.424,97.945,-0.0747758
40.12,420.57,13.419,97.906,-0.0804040
40.17,421.07,13.413,97.863,-0.0888736
40.22,421.57,13.406,97.816,-0.0979932
40.27,422.07,13.399,97.762,-0.1113070
40.32,422.57,13.391,97.702,-0.1279760
40.37,423.07,13.382,97.637,-0.1360200
40.42,423.57,13.371,97.559,-0.1610150
40.47,424.07,13.36,97.48,-0.1551650
40.52,424.57,13.35,97.403,-0.1531460
40.57,425.071,13.339,97.328,-0.1401030
40.62,425.571,13.329,97.256,-0.1430400
40.67,426.071,13.319,97.181,-0.1519230
40.72,426.571,13.309,97.107,-0.1457880
40.77,427.071,13.299,97.034,-0.1537820
40.82,427.571,13.288,96.956,-0.1644220
40.87,428.071,13.276,96.866,-0.1874320
40.92,428.571,13.263,96.772,-0.1886100
40.97,429.071,13.251,96.681,-0.1790470
41.02,429.571,13.238,96.589,-0.1950550
41.07,430.071,13.224,96.487,-0.2147640
41.12,430.572,13.21,96.384,-0.2171550
41.17,431.072,13.195,96.277,-0.2224700
41.22,431.572,13.179,96.16,-0.2561730
41.27,432.072,13.162,96.033,-0.2588240
41.32,432.572,13.143,95.896,-0.2931670
41.37,433.072,13.123,95.751,-0.2938950
41.42,433.572,13.102,95.596,-0.3185210
41.47,434.072,13.08,95.437,-0.3246340
41.52,434.572,13.058,95.272,-0.3485350
41.57,435.072,13.033,95.095,-0.3761950
41.62,435.572,13.008,94.911,-0.3609040
41.67,436.073,12.982,94.72,-0.3951470
41.72,436.573,12.955,94.522,-0.4038100
41.77,437.073,12.927,94.317,-0.4321470
41.82,437.573,12.897,94.1,-0.4387530
41.87,438.073,12.867,93.878,-0.4670560
41.92,438.573,12.833,93.636,-0.4880390
41.97,439.073,12.799,93.383,-0.5160880
42.02,439.573,12.762,93.119,-0.5335380
42.07,440.073,12.723,92.834,-0.5833790
42.12,440.573,12.684,92.545,-0.5518650
42.17,441.073,12.642,92.243,-0.6190020
42.22,441.573,12.599,91.929,-0.6135730
42.27,442.074,12.557,91.617,-0.6391890
42.32,442.574,12.512,91.291,-0.6442370
42.37,443.074,12.466,90.955,-0.7325250
42.42,443.574,12.414,90.575,-0.7535600
42.47,444.074,12.36,90.185,-0.8018310
42.52,444.574,12.305,89.782,-0.8064100
42.57,445.074,12.249,89.37,-0.8610660
42.62,445.574,12.191,88.947,-0.8030680
42.67,446.074,12.138,88.561,-0.7110500
42.72,446.574,12.087,88.19,-0.7347280
42.77,447.074,12.031,87.783,-0.8459880
42.82,447.575,11.972,87.348,-0.8350960
42.87,448.075,11.911,86.904,-0.9539180
42.92,448.575,11.847,86.44,-0.9303110
42.97,449.075,11.782,85.964,-0.9902010
43.02,449.575,11.711,85.449,-1.09747
43.07,450.075,11.634,84.887,-1.11662
43.12,450.575,11.553,84.292,-1.2547
43.17,451.075,11.467,83.664,-1.24798
43.22,451.575,11.377,83.01,-1.34085
43.27,452.075,11.283,82.326,-1.42238
43.32,452.575,11.185,81.611,-1.40687
43.37,453.076,11.088,80.898,-1.44033
43.42,453.576,10.986,80.154,-1.53306
43.47,454.076,10.878,79.366,-1.68725
43.52,454.576,10.766,78.551,-1.68791
43.57,455.076,10.647,77.686,-1.75629
43.62,455.576,10.525,76.793,-1.82428
43.67,456.076,10.399,75.871,-1.8648
43.72,456.576,10.268,74.918,-1.92181
43.77,457.076,10.13,73.91,-2.11999
43.82,457.576,9.991,72.898,-2.03605
43.87,458.076,9.847,71.843,-2.16077
43.92,458.577,9.698,70.757,-2.21433
43.97,459.077,9.541,69.615,-2.36591
44.02,459.577,9.38,68.437,-2.25898
44.07,460.077,9.22,67.273,-2.36275
44.12,460.577,9.05,66.033,-2.47868
44.17,461.077,8.876,64.763,-2.63827
44.22,461.577,8.707,63.526,-2.56931
44.27,462.077,8.525,62.2,-2.64497
44.32,462.577,8.336,60.818,-2.78528
44.37,463.077,8.145,59.428,-2.74731
44.42,463.577,7.947,57.983,-2.97126
44.47,464.078,7.75,56.544,-2.92554
44.52,464.578,7.547,55.068,-3.09478
44.57,465.078,7.337,53.53,-2.96103
44.62,465.578,7.124,51.975,-3.21638
44.67,466.078,6.891,50.28,-3.26328
44.72,466.578,6.682,48.753,-3.28831
44.77,467.078,6.459,47.129,-3.22599
44.82,467.578,6.235,45.494,-3.29497
44.87,468.078,6.005,43.813,-3.18573
44.92,468.578,5.778,42.158,-3.31477
44.97,469.078,5.547,40.47,-3.52868
45.02,469.578,5.309,38.735,-3.20242
45.07,470.079,5.078,37.053,-3.47032
45.12,470.579,4.844,35.344,-3.44526
45.17,471.079,4.616,33.683,-3.35987
45.22,471.579,4.383,31.981,-3.41218
45.27,472.079,4.15,30.278,-3.37853
45.32,472.579,3.919,28.593,-3.36837
45.37,473.079,3.688,26.909,-3.30638
45.42,473.579,3.462,25.26,-3.28926
45.47,474.079,3.237,23.621,-3.19917
45.52,474.579,3.025,22.075,-3.15501
45.57,475.079,2.811,20.507,-3.1273
45.62,475.58,2.602,18.986,-3.01699
45.67,476.08,2.399,17.501,-2.89416
45.72,476.58,2.202,16.07,-2.79376
45.77,477.08,2.014,14.692,-2.64299
45.82,477.58,1.839,13.418,-2.52926
45.87,478.08,1.662,12.125,-2.40535
45.92,478.58,1.501,10.952,-2.27441
45.97,479.08,1.356,9.893,-2.06412
46.02,479.58,1.218,8.884,-1.90469
46.07,480.08,1.091,7.957,-1.75742
46.12,480.58,0.9750000,7.116,-1.58723
46.17,481.081,0.8740000,6.378,-1.44441
46.22,481.581,0.7810000,5.696,-1.23284
46.27,482.081,0.6970000,5.088,-1.11054
46.31,482.581,0.6260000,4.571,-0.9629850
46.36,483.081,0.5620000,4.103,-0.8867300
46.41,483.581,0.5070000,3.698,-0.7368590
46.46,484.081,0.4590000,3.352,-0.6618130
46.51,484.581,0.4190000,3.057,-0.5426990
46.56,485.081,0.3850000,2.812,-0.4501010
46.61,485.581,0.3580000,2.614,-0.3733310
46.66,486.081,0.3360000,2.448,-0.2913410
46.71,486.582,0.3170000,2.312,-0.2360310
46.76,487.082,0.3030000,2.209,-0.1889610
46.81,487.582,0.2920000,2.129,-0.1384650
46.86,488.082,0.2840000,2.069,-0.1015040
46.91,488.582,0.2780000,2.025,-0.0734089
46.96,489.082,0.2740000,1.997,-0.0498294
47.02,489.582,0.2700000,1.971,-0.0504134
47.07,490.082,0.2670000,1.947,-0.0486944
47.12,490.582,0.2640000,1.923,-0.0446357
47.17,491.082,0.2610000,1.902,-0.0397046
47.22,491.582,0.2580000,1.884,-0.0340261
47.27,492.083,0.2560000,1.868,-0.0284899
47.32,492.583,0.2540000,1.854,-0.0240556
47.37,493.083,0.2530000,1.843,-0.0203298
47.42,493.583,0.2510000,1.834,-0.0165493
47.47,494.083,0.2500000,1.827,-0.0134431
47.52,494.583,0.2490000,1.82,-0.0111987
47.57,495.083,0.2490000,1.815,-0.0096001
47.62,495.583,0.2480000,1.811,-0.0077138
47.67,496.083,0.2480000,1.808,-0.0064419
47.72,496.583,0.2470000,1.805,-0.0050375
47.77,497.083,0.2470000,1.802,-0.0044886
47.82,497.583,0.2470000,1.8,-0.0036688
47.87,498.084,0.2470000,1.799,-0.0033395
47.92,498.584,0.2460000,1.797,-0.0025768
47.97,499.084,0.2460000,1.796,-0.0018880
48.02,499.584,0.2460000,1.795,-0.0019775
48.07,500.084,0.2460000,1.795,-0.0017933
48.12,500.584,0.2460000,1.794,-0.0013331
48.17,501.084,0.2460000,1.793,-0.0012632
48.22,501.584,0.2460000,1.793,-0.0013069
48.27,502.084,0.2460000,1.792,-0.0009725
48.32,502.584,0.2460000,1.792,-0.0006619
48.37,503.084,0.2460000,1.791,-0.0009273
48.42,503.585,0.2450000,1.791,-0.0005616
48.47,504.085,0.2450000,1.791,-0.0006239
48.52,504.585,0.2450000,1.79,-0.0004436
48.57,505.085,0.2450000,1.79,-0.0006997
48.62,505.585,0.2450000,1.79,-0.0008251
48.67,506.085,0.2450000,1.789,-0.0008936
48.72,506.585,0.2450000,1.789,-0.0006376
48.77,507.085,0.2450000,1.789,-0.0004301
48.82,507.585,0.2450000,1.788,-0.0002394
48.87,508.085,0.2450000,1.788,-0.0005542
48.92,508.585,0.2450000,1.788,0.0000558
48.97,509.086,0.2450000,1.788,-0.0005397
49.02,509.586,0.2450000,1.787,-0.0002796
49.07,510.086,0.2450000,1.787,-0.0007216
49.12,510.586,0.2450000,1.787,-0.0005956
49.17,511.086,0.2450000,1.786,-0.0003432
49.22,511.586,0.2450000,1.786,-0.0005256
49.27,512.086,0.2450000,1.786,-0.0003451
49.32,512.586,0.2450000,1.785,-0.0005102
49.37,513.086,0.2450000,1.785,-0.0008626
49.42,513.586,0.2450000,1.785,-0.0008169
49.47,514.086,0.2450000,1.785,-0.0004160
49.52,514.587,0.2450000,1.784,-0.0004977
49.57,515.087,0.2450000,1.784,-0.0005756
49.62,515.587,0.2440000,1.784,-0.0008313
49.67,516.087,0.2440000,1.784,-0.0007350
49.72,516.587,0.2440000,1.783,-0.0008254
49.77,517.087,0.2440000,1.783,-0.0003635
49.82,517.587,0.2440000,1.783,-0.0004649
49.87,518.087,0.2440000,1.783,-0.0003052
49.92,518.587,0.2440000,1.782,-0.0003170
49.97,519.087,0.2440000,1.782,-0.0006194
50.02,519.587,0.2440000,1.782,-0.0006844
50.07,520.088,0.2440000,1.782,-0.0005291
50.12,520.588,0.2440000,1.781,-0.0005463
50.17,521.088,0.2440000,1.781,-0.0001386
50.22,521.588,0.2440000,1.781,-0.0005470
50.27,522.088,0.2440000,1.781,-0.0006413
50.32,522.588,0.2440000,1.78,-0.0010220
50.37,523.088,0.2440000,1.78,-0.0006265
50.42,523.588,0.2440000,1.78,-0.0002701
50.47,524.088,0.2440000,1.779,-0.0002142
50.52,524.588,0.2440000,1.779,-0.0006563
50.57,525.088,0.2440000,1.779,-0.0003218
50.62,525.588,0.2440000,1.779,-0.0004491
50.67,526.089,0.2440000,1.779,-0.0003958
50.72,526.589,0.2440000,1.778,-0.0004393
50.77,527.089,0.2440000,1.778,-0.0005493
50.82,527.589,0.2440000,1.778,-0.0006782
50.87,528.089,0.2440000,1.778,-0.0005703
50.92,528.589,0.2440000,1.777,-0.0005546
50.97,529.089,0.2440000,1.777,-0.0005579
51.02,529.589,0.2440000,1.777,-0.0006508
51.07,530.089,0.2430000,1.776,-0.0007070
51.12,530.589,0.2430000,1.776,-0.0006904
51.17,531.089,0.2430000,1.776,-0.0009183
51.22,531.59,0.2430000,1.776,-0.0006470
51.27,532.09,0.2430000,1.775,-0.0007654
51.32,532.59,0.2430000,1.775,-0.0004670
51.37,533.09,0.2430000,1.775,-0.0008397
51.42,533.59,0.2430000,1.775,-0.0008054
51.47,534.09,0.2430000,1.774,-0.0002146
51.52,534.59,0.2430000,1.774,-0.0003387
51.57,535.09,0.2430000,1.774,-0.0005674
51.62,535.59,0.2430000,1.773,-0.0009615
51.67,536.09,0.2430000,1.773,-0.0008478
51.72,536.59,0.2430000,1.773,-0.0008455
51.77,537.091,0.2430000,1.772,-0.0010145
51.82,537.591,0.2430000,1.772,-0.0009966
51.87,538.091,0.2430000,1.771,-0.0007963
51.92,538.591,0.2430000,1.771,-0.0008747
51.97,539.091,0.2430000,1.771,-0.0007582
52.02,539.591,0.2430000,1.77,-0.0008873
52.07,540.091,0.2430000,1.77,-0.0007748
52.12,540.591,0.2430000,1.769,-0.0009705
52.17,541.091,0.2420000,1.769,-0.0006944
52.22,541.591,0.2420000,1.769,-0.0008241
52.27,542.091,0.2420000,1.768,-0.0006621
52.32,542.592,0.2420000,1.768,-0.0006181
52.37,543.092,0.2420000,1.767,-0.0006477
52.42,543.592,0.2420000,1.767,-0.0006539
52.47,544.092,0.2420000,1.767,-0.0009358
52.52,544.592,0.2420000,1.766,-0.0007933
52.57,545.092,0.2420000,1.766,-0.0009701
52.62,545.592,0.2420000,1.765,-0.0008056
52.67,546.092,0.2420000,1.765,-0.0010038
52.72,546.592,0.2420000,1.765,-0.0006913
52.77,547.092,0.2420000,1.764,-0.0008587
52.82,547.592,0.2420000,1.764,-0.0006761
52.87,548.093,0.2420000,1.764,-0.0006855
52.92,548.593,0.2420000,1.763,-0.0009994
52.97,549.093,0.2420000,1.763,-0.0008431
53.02,549.593,0.2420000,1.762,-0.0008966
53.07,550.093,0.2420000,1.762,-0.0007443
53.12,550.593,0.2410000,1.762,-0.0006394
53.17,551.093,0.2410000,1.762,-0.0003514
53.22,551.593,0.2410000,1.761,-0.0005588
53.27,552.093,0.2410000,1.761,-0.0006501
53.32,552.593,0.2410000,1.761,-0.0006084
53.37,553.093,0.2410000,1.76,-0.0005213
53.42,553.593,0.2410000,1.76,-0.0005211
53.47,554.094,0.2410000,1.76,-0.0005170
53.52,554.594,0.2410000,1.759,-0.0004974
53.57,555.094,0.2410000,1.759,-0.0004028
53.62,555.594,0.2410000,1.759,-0.0007512
53.67,556.094,0.2410000,1.758,-0.0007075
53.72,556.594,0.2410000,1.758,-0.0008735
53.77,557.094,0.2410000,1.758,-0.0007140
53.82,557.594,0.2410000,1.757,-0.0008154
53.87,558.094,0.2410000,1.757,-0.0010151
53.92,558.594,0.2410000,1.757,-0.0008857
53.97,559.094,0.2410000,1.756,-0.0006754
54.02,559.595,0.2410000,1.756,-0.0007713
54.07,560.095,0.2410000,1.756,-0.0006131
54.12,560.595,0.2410000,1.755,-0.0007462
54.17,561.095,0.2400000,1.755,-0.0007635
54.22,561.595,0.2400000,1.754,-0.0004118
54.27,562.095,0.2400000,1.754,-0.0006153
54.32,562.595,0.2400000,1.754,-0.0009136
54.37,563.095,0.2400000,1.753,-0.0006510
54.42,563.595,0.2400000,1.753,-0.0007607
54.47,564.095,0.2400000,1.753,-0.0009248
54.52,564.595,0.2400000,1.752,-0.0006539
54.57,565.096,0.2400000,1.752,-0.0004149
54.62,565.596,0.2400000,1.752,-0.0006425
54.67,566.096,0.2400000,1.751,-0.0009109
54.72,566.596,0.2400000,1.751,-0.0007311
54.77,567.096,0.2400000,1.751,-0.0010317
54.82,567.596,0.2400000,1.75,-0.0008847
54.87,568.096,0.2400000,1.75,-0.0008897
54.92,568.596,0.2400000,1.749,-0.0010794
54.97,569.096,0.2400000,1.749,-0.0008976
55.02,569.596,0.2400000,1.749,-0.0009884
55.07,570.096,0.2400000,1.748,-0.0007664
55.12,570.597,0.2400000,1.748,-0.0006925
55.17,571.097,0.2390000,1.747,-0.0010292
55.22,571.597,0.2390000,1.747,-0.0009012
55.27,572.097,0.2390000,1.747,-0.0009676
55.32,572.597,0.2390000,1.746,-0.0007991
55.37,573.097,0.2390000,1.746,-0.0008428
55.42,573.597,0.2390000,1.746,-0.0007705
55.47,574.097,0.2390000,1.745,-0.0008392
55.52,574.597,0.2390000,1.745,-0.0009758
55.57,575.097,0.2390000,1.744,-0.0008690
55.62,575.597,0.2390000,1.744,-0.0004031
55.67,576.098,0.2390000,1.744,-0.0009877
55.72,576.598,0.2390000,1.743,-0.0009079
55.77,577.098,0.2390000,1.743,-0.0006532
55.82,577.598,0.2390000,1.742,-0.0007755
55.87,578.098,0.2390000,1.742,-0.0012196
55.92,578.598,0.2390000,1.741,-0.0008750
55.97,579.098,0.2390000,1.74,-0.0010220
56.02,579.598,0.2380000,1.74,-0.0008456
56.07,580.098,0.2380000,1.739,-0.0012261
56.12,580.598,0.2380000,1.739,-0.0012241
56.17,581.098,0.2380000,1.738,-0.0017149
56.22,581.598,0.2380000,1.737,-0.0015107
56.27,582.099,0.2380000,1.737,-0.0014008
56.32,582.599,0.2380000,1.736,-0.0014180
56.37,583.099,0.2380000,1.735,-0.0017514
56.42,583.599,0.2380000,1.734,-0.0016407
56.47,584.099,0.2380000,1.734,-0.0017209
56.52,584.599,0.2370000,1.733,-0.0018345
56.57,585.099,0.2370000,1.732,-0.0012899
56.62,585.599,0.2370000,1.731,-0.0019496
56.67,586.099,0.2370000,1.73,-0.0018817
56.72,586.599,0.2370000,1.729,-0.0021197
56.77,587.099,0.2370000,1.728,-0.0019152
56.82,587.6,0.2370000,1.727,-0.0020403
56.87,588.1,0.2370000,1.726,-0.0021456
56.92,588.6,0.2360000,1.725,-0.0018965
56.97,589.1,0.2360000,1.724,-0.0023877
57.02,589.6,0.2360000,1.723,-0.0023698
57.06,590,0.2360000,1.722,-0.0020139