File: R/rHDPE_App/app/www/Output/TGA/Condensed_Data/Resin14_0_.csv
0.7000000,30,13.436,100.017,0.0074940
0.7800000,30.5001,13.437,100.02,0.0060466
0.8400000,31.0002,13.437,100.023,0.0047538
0.9100000,31.5003,13.437,100.025,0.0028651
0.9700000,32.0004,13.437,100.027,0.0023984
1.03,32.5004,13.438,100.028,0.0042092
1.09,33.0005,13.438,100.03,0.0030108
1.14,33.5006,13.438,100.031,0.0013784
1.2,34.0007,13.438,100.032,0.0032492
1.26,34.5008,13.438,100.033,0.0024390
1.32,35.0009,13.438,100.035,0.0010803
1.37,35.501,13.439,100.035,0.0020929
1.43,36.0011,13.439,100.036,0.0015718
1.48,36.5012,13.439,100.037,0.0020164
1.54,37.0013,13.439,100.038,0.0014043
1.59,37.5013,13.439,100.039,0.0020461
1.65,38.0014,13.439,100.04,0.0013414
1.7,38.5015,13.439,100.041,0.0011876
1.76,39.0016,13.439,100.042,0.0020698
1.81,39.5017,13.439,100.042,0.0018663
1.86,40.0018,13.44,100.043,0.0016653
1.92,40.5019,13.44,100.044,0.0017106
1.97,41.002,13.44,100.045,0.0010241
2.02,41.5021,13.44,100.045,0.0014598
2.08,42.0021,13.44,100.046,0.0006800
2.13,42.5022,13.44,100.047,0.0010182
2.18,43.0023,13.44,100.047,0.0016949
2.24,43.5024,13.44,100.048,0.0013544
2.29,44.0025,13.44,100.049,0.0006765
2.34,44.5026,13.44,100.049,0.0015436
2.39,45.0027,13.441,100.05,0.0019745
2.44,45.5028,13.441,100.051,0.0013944
2.5,46.0029,13.441,100.052,0.0012482
2.55,46.5029,13.441,100.052,0.0016296
2.6,47.003,13.441,100.053,0.0017220
2.66,47.5031,13.441,100.054,0.0016705
2.71,48.0032,13.441,100.055,0.0012868
2.76,48.5033,13.441,100.055,0.0012372
2.81,49.0034,13.441,100.056,0.0015205
2.86,49.5035,13.441,100.057,0.0014234
2.91,50.0036,13.442,100.058,0.0017519
2.97,50.5037,13.442,100.059,0.0018910
3.02,51.0038,13.442,100.059,0.0013222
3.07,51.5038,13.442,100.06,0.0015092
3.12,52.0039,13.442,100.061,0.0015079
3.17,52.504,13.442,100.061,0.0008941
3.22,53.0041,13.442,100.062,0.0011756
3.28,53.5042,13.442,100.063,0.0012209
3.33,54.0043,13.442,100.063,0.0013602
3.38,54.5044,13.442,100.064,0.0013116
3.43,55.0045,13.442,100.064,0.0015455
3.48,55.5046,13.443,100.065,0.0014497
3.53,56.0046,13.443,100.066,0.0015892
3.58,56.5047,13.443,100.066,0.0013535
3.63,57.0048,13.443,100.067,0.0013525
3.68,57.5049,13.443,100.068,0.0011647
3.74,58.005,13.443,100.068,0.0012569
3.79,58.5051,13.443,100.069,0.0014889
3.84,59.0052,13.443,100.069,0.0008832
3.89,59.5053,13.443,100.07,0.0011617
3.94,60.0054,13.443,100.071,0.0009294
3.99,60.5054,13.443,100.071,0.0010210
4.04,61.0055,13.443,100.072,0.0012522
4.09,61.5056,13.444,100.072,0.0006486
4.14,62.0057,13.444,100.073,0.0014356
4.19,62.5058,13.444,100.074,0.0009724
4.24,63.0059,13.444,100.074,0.0009717
4.29,63.506,13.444,100.075,0.0006475
4.34,64.0061,13.444,100.075,0.0009710
4.39,64.5062,13.444,100.076,0.0009245
4.44,65.0063,13.444,100.076,0.0010157
4.49,65.5063,13.444,100.077,0.0009691
4.55,66.0064,13.444,100.077,0.0010601
4.6,66.5065,13.444,100.078,0.0013351
4.65,67.0066,13.444,100.079,0.0009189
4.7,67.5067,13.444,100.079,0.0005520
4.75,68.0068,13.444,100.08,0.0008290
4.8,68.5069,13.445,100.08,0.0006906
4.85,69.007,13.445,100.08,0.0007368
4.9,69.5071,13.445,100.081,0.0009663
4.95,70.0071,13.445,100.081,0.0008738
5,70.5072,13.445,100.082,0.0006436
5.05,71.0073,13.445,100.082,0.0011490
5.1,71.5074,13.445,100.083,0.0006430
5.15,72.0075,13.445,100.083,0.0005974
5.2,72.5076,13.445,100.084,0.0008266
5.25,73.0077,13.445,100.084,0.0007807
5.3,73.5078,13.445,100.085,0.0005508
5.35,74.0079,13.445,100.085,0.0009179
5.4,74.5079,13.445,100.085,0.0009630
5.45,75.008,13.445,100.086,0.0007793
5.5,75.5081,13.445,100.087,0.0004126
5.55,76.0082,13.445,100.087,0.0008250
5.6,76.5083,13.446,100.087,0.0007792
5.65,77.0084,13.446,100.088,0.0005501
5.7,77.5085,13.446,100.088,0.0010543
5.75,78.0086,13.446,100.088,0.0008249
5.8,78.5087,13.446,100.089,0.0009156
5.85,79.0088,13.446,100.089,0.0014185
5.9,79.5088,13.446,100.09,0.0006863
5.95,80.0089,13.446,100.09,0.0010972
6,80.509,13.446,100.09,0.0007771
6.05,81.0091,13.446,100.091,0.0009609
6.1,81.5092,13.446,100.091,0.0008698
6.15,82.0093,13.446,100.091,0.0003204
6.2,82.5094,13.446,100.092,0.0004122
6.25,83.0095,13.446,100.092,0.0009150
6.3,83.5096,13.446,100.093,0.0002287
6.35,84.0096,13.446,100.093,0.0002285
6.4,84.5097,13.446,100.093,0.0000914
6.45,85.0098,13.446,100.093,0.0002286
6.5,85.5099,13.446,100.094,0.0003662
6.55,86.01,13.446,100.094,0.0008247
6.6,86.5101,13.446,100.094,0.0006878
6.65,87.0102,13.446,100.094,0.0008255
6.7,87.5103,13.447,100.095,0.0005042
6.75,88.0104,13.447,100.095,0.0008701
6.8,88.5104,13.447,100.095,0.0004577
6.85,89.0105,13.447,100.096,0.0006865
6.9,89.5106,13.447,100.096,0.0012348
6.95,90.0107,13.447,100.096,0.0004574
7,90.5108,13.447,100.096,0.0003199
7.05,91.0109,13.447,100.097,0.0002285
7.1,91.511,13.447,100.097,0.0000914
7.15,92.0111,13.447,100.097,0.0003197
7.2,92.5112,13.447,100.097,0.0003196
7.25,93.0113,13.447,100.097,0.0002741
7.3,93.5113,13.447,100.098,-0.0001826
7.35,94.0114,13.447,100.098,0.0002286
7.4,94.5115,13.447,100.098,-0.0000458
7.45,95.0116,13.447,100.098,0.0005032
7.5,95.5117,13.447,100.098,0.0002290
7.55,96.0118,13.447,100.098,0.0002748
7.6,96.5119,13.447,100.099,0.0003208
7.65,97.012,13.447,100.099,0.0003669
7.7,97.5121,13.447,100.099,0.0004586
7.75,98.0121,13.447,100.099,0.0004578
7.8,98.5122,13.447,100.099,0.0004124
7.85,99.0123,13.447,100.099,0.0003668
7.9,99.5124,13.447,100.099,0.0002750
7.95,100.013,13.447,100.099,0.0001374
8,100.513,13.447,100.1,0.0006408
8.05,101.013,13.447,100.1,0.0001372
8.1,101.513,13.447,100.1,0.0004114
8.15,102.013,13.447,100.1,-0.0000457
8.2,102.513,13.447,100.1,0.0000913
8.25,103.013,13.447,100.1,0.0000000
8.3,103.513,13.447,100.1,-0.0001827
8.35,104.013,13.447,100.1,0.0000000
8.4,104.513,13.447,100.1,0.0000000
8.45,105.013,13.447,100.1,-0.0000915
8.5,105.513,13.447,100.1,0.0000000
8.55,106.014,13.447,100.1,-0.0003202
8.6,106.514,13.447,100.101,0.0000915
8.65,107.014,13.447,100.101,0.0001832
8.7,107.514,13.447,100.101,0.0001374
8.75,108.014,13.447,100.101,0.0000916
8.8,108.514,13.447,100.101,-0.0000917
8.85,109.014,13.447,100.1,0.0002292
8.9,109.514,13.447,100.1,0.0004123
8.95,110.014,13.447,100.1,0.0000000
9,110.514,13.447,100.1,0.0005950
9.05,111.014,13.447,100.1,0.0004118
9.1,111.515,13.447,100.1,0.0000000
9.15,112.015,13.447,100.1,-0.0002290
9.2,112.515,13.447,100.1,-0.0001833
9.25,113.015,13.447,100.1,0.0000000
9.3,113.515,13.447,100.101,0.0000915
9.35,114.015,13.447,100.101,-0.0000458
9.4,114.515,13.447,100.101,-0.0002743
9.45,115.015,13.447,100.101,-0.0001373
9.5,115.515,13.447,100.101,-0.0000458
9.55,116.015,13.447,100.101,-0.0002744
9.6,116.515,13.447,100.101,-0.0004577
9.65,117.016,13.447,100.101,-0.0005040
9.7,117.516,13.447,100.101,-0.0001375
9.75,118.016,13.447,100.101,0.0001832
9.8,118.516,13.447,100.101,0.0000916
9.85,119.016,13.447,100.101,-0.0002292
9.9,119.516,13.447,100.101,0.0000000
9.95,120.016,13.447,100.101,0.0005046
10,120.516,13.447,100.101,0.0001374
10.05,121.016,13.447,100.101,0.0002292
10.1,121.516,13.447,100.1,0.0002293
10.15,122.016,13.447,100.1,0.0004127
10.2,122.517,13.447,100.101,0.0003666
10.25,123.017,13.447,100.101,0.0002291
10.3,123.517,13.447,100.101,0.0003208
10.35,124.017,13.447,100.101,0.0000000
10.4,124.517,13.447,100.101,0.0004581
10.45,125.017,13.447,100.101,0.0000458
10.5,125.517,13.447,100.101,0.0002748
10.55,126.017,13.447,100.101,0.0000000
10.6,126.517,13.447,100.101,-0.0001832
10.65,127.017,13.447,100.101,0.0001374
10.7,127.517,13.447,100.101,-0.0000458
10.75,128.018,13.447,100.101,0.0000458
10.8,128.518,13.447,100.101,-0.0004581
10.85,129.018,13.447,100.101,-0.0001375
10.9,129.518,13.447,100.101,-0.0001375
10.95,130.018,13.447,100.101,-0.0002292
11,130.518,13.447,100.101,-0.0004126
11.05,131.018,13.447,100.101,-0.0000459
11.1,131.518,13.447,100.101,0.0003207
11.15,132.018,13.447,100.101,0.0002750
11.2,132.518,13.447,100.101,0.0002291
11.25,133.018,13.447,100.101,0.0000000
11.3,133.518,13.447,100.101,0.0000458
11.35,134.019,13.447,100.101,0.0004124
11.4,134.519,13.447,100.101,-0.0000000
11.45,135.019,13.447,100.101,-0.0004575
11.5,135.519,13.447,100.101,-0.0002747
11.55,136.019,13.447,100.101,-0.0005488
11.6,136.519,13.447,100.1,-0.0006403
11.65,137.019,13.447,100.1,-0.0006406
11.7,137.519,13.447,100.1,-0.0005495
11.75,138.019,13.447,100.1,-0.0005951
11.8,138.519,13.447,100.1,-0.0004116
11.85,139.019,13.447,100.099,-0.0005024
11.9,139.52,13.447,100.099,-0.0006390
11.95,140.02,13.447,100.099,-0.0006396
12,140.52,13.447,100.098,-0.0006863
12.05,141.02,13.447,100.098,-0.0006401
12.1,141.52,13.447,100.097,-0.0011424
12.15,142.02,13.447,100.096,-0.0015993
12.2,142.52,13.447,100.095,-0.0020554
12.25,143.02,13.446,100.094,-0.0023734
12.3,143.52,13.446,100.093,-0.0023283
12.35,144.02,13.446,100.092,-0.0026011
12.4,144.52,13.446,100.091,-0.0021898
12.45,145.021,13.446,100.09,-0.0023733
12.5,145.521,13.446,100.089,-0.0025103
12.55,146.021,13.446,100.087,-0.0023729
12.6,146.521,13.445,100.086,-0.0021432
12.65,147.021,13.445,100.085,-0.0020511
12.7,147.521,13.445,100.084,-0.0017328
12.75,148.021,13.445,100.083,-0.0016442
12.8,148.521,13.445,100.082,-0.0024714
12.85,149.021,13.445,100.081,-0.0021068
12.9,149.521,13.445,100.08,-0.0021087
12.95,150.021,13.444,100.079,-0.0017890
13,150.522,13.444,100.078,-0.0020637
13.05,151.022,13.444,100.077,-0.0022008
13.1,151.522,13.444,100.076,-0.0019739
13.15,152.022,13.444,100.075,-0.0017010
13.2,152.522,13.444,100.074,-0.0016088
13.25,153.022,13.444,100.074,-0.0012389
13.3,153.522,13.444,100.073,-0.0016021
13.35,154.022,13.443,100.072,-0.0013724
13.4,154.522,13.443,100.071,-0.0015102
13.45,155.022,13.443,100.071,-0.0014192
13.5,155.522,13.443,100.07,-0.0014211
13.55,156.023,13.443,100.069,-0.0017451
13.6,156.523,13.443,100.068,-0.0017452
13.65,157.023,13.443,100.067,-0.0015613
13.7,157.523,13.443,100.066,-0.0021546
13.75,158.023,13.443,100.066,-0.0021554
13.8,158.523,13.442,100.065,-0.0016055
13.85,159.023,13.442,100.064,-0.0020652
13.9,159.523,13.442,100.063,-0.0017451
13.95,160.023,13.442,100.062,-0.0015615
14,160.523,13.442,100.061,-0.0015146
14.05,161.023,13.442,100.06,-0.0015596
14.1,161.523,13.442,100.059,-0.0018323
14.15,162.024,13.442,100.059,-0.0019254
14.2,162.524,13.442,100.058,-0.0022471
14.25,163.024,13.441,100.057,-0.0018842
14.3,163.524,13.441,100.056,-0.0022073
14.35,164.024,13.441,100.055,-0.0021134
14.4,164.524,13.441,100.054,-0.0022067
14.45,165.024,13.441,100.053,-0.0016085
14.5,165.524,13.441,100.052,-0.0014682
14.55,166.024,13.441,100.051,-0.0015582
14.6,166.524,13.441,100.05,-0.0018325
14.65,167.024,13.44,100.049,-0.0023362
14.7,167.525,13.44,100.048,-0.0020151
14.75,168.025,13.44,100.047,-0.0022894
14.8,168.525,13.44,100.046,-0.0025190
14.85,169.025,13.44,100.045,-0.0024719
14.9,169.525,13.44,100.044,-0.0021982
14.95,170.025,13.44,100.043,-0.0021524
15,170.525,13.439,100.042,-0.0017860
15.05,171.025,13.439,100.041,-0.0018778
15.1,171.525,13.439,100.04,-0.0022415
15.15,172.025,13.439,100.039,-0.0026082
15.2,172.525,13.439,100.037,-0.0024261
15.25,173.026,13.439,100.036,-0.0021511
15.3,173.526,13.439,100.035,-0.0022883
15.35,174.026,13.438,100.034,-0.0020591
15.4,174.526,13.438,100.033,-0.0022429
15.45,175.026,13.438,100.032,-0.0026550
15.5,175.526,13.438,100.03,-0.0026130
15.55,176.026,13.438,100.029,-0.0027990
15.6,176.526,13.438,100.028,-0.0024780
15.65,177.026,13.437,100.027,-0.0024753
15.7,177.526,13.437,100.025,-0.0023373
15.75,178.026,13.437,100.024,-0.0025669
15.8,178.527,13.437,100.023,-0.0024744
15.85,179.027,13.437,100.021,-0.0024283
15.9,179.527,13.437,100.02,-0.0026569
15.95,180.027,13.436,100.019,-0.0027930
16,180.527,13.436,100.018,-0.0021039
16.05,181.027,13.436,100.017,-0.0020573
16.1,181.527,13.436,100.015,-0.0025229
16.15,182.027,13.436,100.014,-0.0022961
16.2,182.527,13.435,100.013,-0.0029886
16.25,183.027,13.435,100.011,-0.0025763
16.3,183.527,13.435,100.01,-0.0025352
16.35,184.028,13.435,100.009,-0.0026708
16.4,184.528,13.435,100.007,-0.0028524
16.45,185.028,13.435,100.006,-0.0025259
16.5,185.528,13.434,100.005,-0.0023384
16.55,186.028,13.434,100.003,-0.0024267
16.6,186.528,13.434,100.002,-0.0025618
16.65,187.028,13.434,100.001,-0.0027465
16.7,187.528,13.434,99.999,-0.0029729
16.75,188.028,13.434,99.998,-0.0032952
16.8,188.528,13.433,99.997,-0.0026975
16.85,189.028,13.433,99.995,-0.0026980
16.9,189.528,13.433,99.994,-0.0025606
16.95,190.029,13.433,99.992,-0.0028793
17,190.529,13.433,99.991,-0.0030635
17.05,191.029,13.432,99.989,-0.0031564
17.11,191.529,13.432,99.988,-0.0029732
17.16,192.029,13.432,99.986,-0.0030192
17.21,192.529,13.432,99.985,-0.0026975
17.26,193.029,13.432,99.983,-0.0023315
17.3,193.529,13.431,99.982,-0.0030622
17.35,194.029,13.431,99.981,-0.0032465
17.4,194.529,13.431,99.979,-0.0028370
17.45,195.029,13.431,99.977,-0.0029781
17.5,195.53,13.431,99.976,-0.0030248
17.55,196.03,13.43,99.974,-0.0027503
17.61,196.53,13.43,99.973,-0.0028427
17.66,197.03,13.43,99.971,-0.0026610
17.71,197.53,13.43,99.97,-0.0033505
17.76,198.03,13.43,99.968,-0.0033967
17.81,198.53,13.429,99.967,-0.0034395
17.86,199.03,13.429,99.965,-0.0033040
17.91,199.53,13.429,99.963,-0.0033036
17.96,200.03,13.429,99.962,-0.0029794
18.01,200.53,13.428,99.96,-0.0029781
18.06,201.031,13.428,99.959,-0.0033456
18.11,201.531,13.428,99.957,-0.0031150
18.16,202.031,13.428,99.955,-0.0035724
18.21,202.531,13.428,99.954,-0.0030673
18.26,203.031,13.427,99.952,-0.0031122
18.31,203.531,13.427,99.951,-0.0032485
18.36,204.031,13.427,99.949,-0.0029304
18.41,204.531,13.427,99.947,-0.0033898
18.46,205.031,13.426,99.946,-0.0034815
18.51,205.531,13.426,99.944,-0.0032518
18.56,206.031,13.426,99.943,-0.0035731
18.61,206.532,13.426,99.941,-0.0032979
18.66,207.032,13.426,99.939,-0.0032066
18.71,207.532,13.425,99.938,-0.0030239
18.76,208.032,13.425,99.936,-0.0034799
18.81,208.532,13.425,99.934,-0.0037969
18.86,209.032,13.425,99.932,-0.0034325
18.91,209.532,13.424,99.931,-0.0033883
18.96,210.032,13.424,99.929,-0.0034786
19.01,210.532,13.424,99.927,-0.0032509
19.06,211.032,13.424,99.925,-0.0030692
19.11,211.532,13.424,99.924,-0.0034799
19.16,212.033,13.423,99.922,-0.0035714
19.21,212.533,13.423,99.92,-0.0035714
19.26,213.033,13.423,99.919,-0.0035295
19.31,213.533,13.423,99.917,-0.0031651
19.36,214.033,13.422,99.915,-0.0033502
19.41,214.533,13.422,99.914,-0.0035327
19.46,215.033,13.422,99.912,-0.0040348
19.51,215.533,13.422,99.91,-0.0034849
19.56,216.033,13.421,99.908,-0.0034413
19.61,216.533,13.421,99.907,-0.0031167
19.66,217.033,13.421,99.905,-0.0029304
19.71,217.533,13.421,99.903,-0.0033425
19.76,218.034,13.421,99.902,-0.0037112
19.81,218.534,13.42,99.9,-0.0036186
19.86,219.034,13.42,99.898,-0.0035282
19.91,219.534,13.42,99.896,-0.0038919
19.96,220.034,13.42,99.894,-0.0034325
20.01,220.534,13.419,99.893,-0.0033406
20.06,221.034,13.419,99.891,-0.0032928
20.11,221.534,13.419,99.889,-0.0037924
20.16,222.034,13.419,99.887,-0.0036543
20.21,222.534,13.418,99.886,-0.0037934
20.26,223.034,13.418,99.884,-0.0034293
20.31,223.535,13.418,99.882,-0.0035718
20.36,224.035,13.418,99.88,-0.0034394
20.41,224.535,13.417,99.878,-0.0034888
20.46,225.035,13.417,99.876,-0.0036252
20.51,225.535,13.417,99.875,-0.0039475
20.56,226.035,13.417,99.873,-0.0037676
20.61,226.535,13.416,99.871,-0.0036315
20.66,227.035,13.416,99.869,-0.0037701
20.71,227.535,13.416,99.867,-0.0032181
20.76,228.035,13.416,99.865,-0.0035299
20.81,228.535,13.415,99.864,-0.0038171
20.86,229.036,13.415,99.862,-0.0031013
20.91,229.536,13.415,99.86,-0.0035484
20.96,230.036,13.415,99.858,-0.0033554
21.01,230.536,13.414,99.856,-0.0031613
21.06,231.036,13.414,99.854,-0.0037415
21.11,231.536,13.414,99.853,-0.0037768
21.16,232.036,13.414,99.851,-0.0039571
21.21,232.536,13.413,99.849,-0.0039013
21.26,233.036,13.413,99.847,-0.0039931
21.31,233.536,13.413,99.845,-0.0040041
21.36,234.036,13.413,99.843,-0.0039226
21.41,234.537,13.412,99.841,-0.0039234
21.46,235.037,13.412,99.839,-0.0041986
21.51,235.537,13.412,99.837,-0.0040219
21.56,236.037,13.412,99.835,-0.0042993
21.61,236.537,13.411,99.833,-0.0038437
21.66,237.037,13.411,99.831,-0.0039846
21.71,237.537,13.411,99.829,-0.0037580
21.76,238.037,13.411,99.827,-0.0037604
21.81,238.537,13.41,99.825,-0.0042217
21.86,239.037,13.41,99.823,-0.0044069
21.91,239.537,13.41,99.821,-0.0041292
21.96,240.038,13.409,99.819,-0.0040796
22.01,240.538,13.409,99.817,-0.0039388
22.06,241.038,13.409,99.815,-0.0037536
22.11,241.538,13.409,99.812,-0.0042113
22.16,242.038,13.408,99.81,-0.0041220
22.21,242.538,13.408,99.808,-0.0040770
22.26,243.038,13.408,99.806,-0.0043526
22.31,243.538,13.407,99.804,-0.0038049
22.36,244.038,13.407,99.802,-0.0037570
22.41,244.538,13.407,99.8,-0.0036096
22.46,245.038,13.407,99.798,-0.0041982
22.51,245.538,13.406,99.796,-0.0047567
22.56,246.039,13.406,99.794,-0.0046339
22.61,246.539,13.406,99.791,-0.0044569
22.66,247.039,13.405,99.789,-0.0047750
22.71,247.539,13.405,99.787,-0.0042598
22.76,248.039,13.405,99.785,-0.0043470
22.81,248.539,13.405,99.783,-0.0043466
22.86,249.039,13.404,99.78,-0.0046147
22.91,249.539,13.404,99.778,-0.0045132
22.96,250.039,13.404,99.776,-0.0043904
23.01,250.539,13.403,99.774,-0.0049804
23.06,251.039,13.403,99.771,-0.0044786
23.11,251.54,13.403,99.769,-0.0045210
23.16,252.04,13.402,99.767,-0.0044345
23.21,252.54,13.402,99.764,-0.0044778
23.26,253.04,13.402,99.762,-0.0044737
23.31,253.54,13.402,99.76,-0.0048864
23.36,254.04,13.401,99.757,-0.0049749
23.41,254.54,13.401,99.755,-0.0051156
23.46,255.04,13.401,99.753,-0.0050768
23.51,255.54,13.4,99.75,-0.0046712
23.56,256.04,13.4,99.748,-0.0046618
23.61,256.54,13.4,99.745,-0.0047411
23.66,257.041,13.399,99.743,-0.0049662
23.71,257.541,13.399,99.74,-0.0049388
23.76,258.041,13.399,99.738,-0.0056297
23.81,258.541,13.398,99.735,-0.0052820
23.86,259.041,13.398,99.732,-0.0055117
23.91,259.541,13.397,99.729,-0.0057551
23.96,260.041,13.397,99.727,-0.0053338
24.01,260.541,13.397,99.724,-0.0054208
24.06,261.041,13.396,99.721,-0.0054788
24.11,261.541,13.396,99.719,-0.0055188
24.16,262.041,13.396,99.716,-0.0056494
24.21,262.542,13.395,99.713,-0.0058289
24.26,263.042,13.395,99.71,-0.0057308
24.31,263.542,13.394,99.707,-0.0058171
24.36,264.042,13.394,99.705,-0.0053552
24.41,264.542,13.394,99.702,-0.0052608
24.46,265.042,13.393,99.699,-0.0055790
24.51,265.542,13.393,99.696,-0.0057608
24.56,266.042,13.393,99.693,-0.0058479
24.61,266.542,13.392,99.69,-0.0060329
24.66,267.042,13.392,99.688,-0.0056236
24.71,267.542,13.391,99.685,-0.0059502
24.76,268.043,13.391,99.682,-0.0051588
24.81,268.543,13.391,99.679,-0.0057938
24.86,269.043,13.39,99.676,-0.0059893
24.91,269.543,13.39,99.673,-0.0064196
24.96,270.043,13.389,99.67,-0.0065994
25.01,270.543,13.389,99.666,-0.0064560
25.06,271.043,13.389,99.664,-0.0055759
25.11,271.543,13.388,99.66,-0.0057164
25.16,272.043,13.388,99.657,-0.0061032
25.21,272.543,13.387,99.654,-0.0060580
25.26,273.043,13.387,99.651,-0.0058932
25.31,273.543,13.387,99.648,-0.0065934
25.36,274.044,13.386,99.645,-0.0063118
25.41,274.544,13.386,99.642,-0.0060329
25.46,275.044,13.385,99.639,-0.0059828
25.51,275.544,13.385,99.636,-0.0061643
25.56,276.044,13.384,99.633,-0.0063505
25.61,276.544,13.384,99.63,-0.0061243
25.66,277.044,13.384,99.626,-0.0060830
25.71,277.544,13.383,99.623,-0.0069495
25.76,278.044,13.383,99.62,-0.0067247
25.81,278.544,13.382,99.617,-0.0064935
25.86,279.044,13.382,99.614,-0.0061745
25.91,279.545,13.381,99.61,-0.0064009
25.96,280.045,13.381,99.607,-0.0064679
26.01,280.545,13.381,99.604,-0.0060517
26.06,281.045,13.38,99.601,-0.0071520
26.11,281.545,13.38,99.597,-0.0063667
26.16,282.045,13.379,99.594,-0.0064983
26.21,282.545,13.379,99.591,-0.0062649
26.26,283.045,13.378,99.588,-0.0067148
26.31,283.545,13.378,99.584,-0.0068161
26.36,284.045,13.377,99.581,-0.0070616
26.41,284.545,13.377,99.578,-0.0067853
26.46,285.046,13.377,99.574,-0.0065018
26.51,285.546,13.376,99.571,-0.0062294
26.56,286.046,13.376,99.568,-0.0062351
26.61,286.546,13.375,99.564,-0.0064703
26.66,287.046,13.375,99.561,-0.0061972
26.71,287.546,13.374,99.558,-0.0063727
26.76,288.046,13.374,99.554,-0.0065055
26.81,288.546,13.373,99.551,-0.0063610
26.86,289.046,13.373,99.548,-0.0068985
26.91,289.546,13.373,99.544,-0.0065378
26.96,290.046,13.372,99.541,-0.0069559
27.02,290.547,13.372,99.537,-0.0064809
27.07,291.047,13.371,99.534,-0.0065090
27.12,291.547,13.371,99.531,-0.0065873
27.17,292.047,13.37,99.527,-0.0064804
27.21,292.547,13.37,99.524,-0.0066533
27.26,293.047,13.369,99.521,-0.0066065
27.31,293.547,13.369,99.517,-0.0068481
27.36,294.047,13.368,99.514,-0.0064067
27.41,294.547,13.368,99.511,-0.0065440
27.46,295.047,13.368,99.507,-0.0067678
27.51,295.547,13.367,99.504,-0.0070410
27.56,296.048,13.367,99.5,-0.0072669
27.61,296.548,13.366,99.497,-0.0069088
27.66,297.048,13.366,99.494,-0.0069228
27.71,297.548,13.365,99.49,-0.0069648
27.76,298.048,13.365,99.487,-0.0067704
27.81,298.548,13.364,99.483,-0.0066392
27.86,299.048,13.364,99.48,-0.0070462
27.91,299.548,13.363,99.476,-0.0072212
27.96,300.048,13.363,99.473,-0.0072304
28.01,300.548,13.362,99.469,-0.0067866
28.06,301.048,13.362,99.466,-0.0069789
28.11,301.548,13.362,99.462,-0.0070222
28.16,302.049,13.361,99.459,-0.0073436
28.21,302.549,13.361,99.455,-0.0073394
28.26,303.049,13.36,99.451,-0.0072451
28.31,303.549,13.36,99.448,-0.0070971
28.37,304.049,13.359,99.444,-0.0070145
28.42,304.549,13.359,99.441,-0.0065850
28.46,305.049,13.358,99.438,-0.0069838
28.51,305.549,13.358,99.434,-0.0076368
28.56,306.049,13.357,99.43,-0.0065440
28.61,306.549,13.357,99.427,-0.0073301
28.66,307.049,13.356,99.423,-0.0073853
28.72,307.55,13.356,99.419,-0.0076007
28.77,308.05,13.355,99.415,-0.0073690
28.82,308.55,13.355,99.412,-0.0076423
28.86,309.05,13.354,99.408,-0.0070449
28.91,309.55,13.354,99.405,-0.0072736
28.97,310.05,13.353,99.401,-0.0065911
29.02,310.55,13.353,99.397,-0.0069507
29.07,311.05,13.352,99.394,-0.0073152
29.12,311.55,13.352,99.39,-0.0079568
29.17,312.05,13.351,99.386,-0.0077881
29.22,312.55,13.351,99.382,-0.0075661
29.27,313.051,13.35,99.379,-0.0076563
29.32,313.551,13.35,99.375,-0.0071886
29.37,314.051,13.349,99.371,-0.0077839
29.42,314.551,13.349,99.367,-0.0075229
29.47,315.051,13.348,99.364,-0.0075298
29.52,315.551,13.348,99.36,-0.0073813
29.57,316.051,13.347,99.356,-0.0079068
29.62,316.551,13.347,99.352,-0.0079714
29.67,317.051,13.346,99.348,-0.0077107
29.72,317.551,13.346,99.345,-0.0077064
29.77,318.051,13.345,99.341,-0.0078755
29.82,318.552,13.345,99.337,-0.0075868
29.87,319.052,13.344,99.333,-0.0075923
29.92,319.552,13.344,99.329,-0.0075619
29.97,320.052,13.343,99.325,-0.0075216
30.02,320.552,13.343,99.321,-0.0076202
30.07,321.052,13.342,99.317,-0.0078440
30.12,321.552,13.342,99.313,-0.0077064
30.17,322.052,13.341,99.309,-0.0079315
30.22,322.552,13.34,99.306,-0.0075550
30.27,323.052,13.34,99.302,-0.0081472
30.32,323.552,13.339,99.298,-0.0079169
30.37,324.053,13.339,99.294,-0.0079110
30.42,324.553,13.338,99.29,-0.0084249
30.47,325.053,13.338,99.285,-0.0081147
30.52,325.553,13.337,99.281,-0.0083945
30.57,326.053,13.337,99.277,-0.0083440
30.62,326.553,13.336,99.273,-0.0080202
30.67,327.053,13.336,99.269,-0.0078923
30.72,327.553,13.335,99.265,-0.0085057
30.77,328.053,13.334,99.261,-0.0074954
30.82,328.553,13.334,99.257,-0.0081914
30.87,329.053,13.333,99.252,-0.0085670
30.92,329.553,13.333,99.248,-0.0083914
30.97,330.054,13.332,99.244,-0.0082080
31.02,330.554,13.332,99.24,-0.0081576
31.07,331.054,13.331,99.236,-0.0082447
31.12,331.554,13.331,99.232,-0.0089678
31.17,332.054,13.33,99.228,-0.0087912
31.22,332.554,13.329,99.224,-0.0078755
31.27,333.054,13.329,99.219,-0.0083822
31.32,333.554,13.328,99.215,-0.0088779
31.37,334.054,13.328,99.211,-0.0090659
31.42,334.554,13.327,99.206,-0.0083745
31.47,335.054,13.327,99.202,-0.0083698
31.52,335.555,13.326,99.198,-0.0086996
31.57,336.055,13.325,99.193,-0.0084816
31.62,336.555,13.325,99.189,-0.0084326
31.67,337.055,13.324,99.185,-0.0085575
31.72,337.555,13.324,99.18,-0.0085591
31.77,338.055,13.323,99.176,-0.0089694
31.82,338.555,13.322,99.171,-0.0088828
31.87,339.055,13.322,99.167,-0.0086996
31.92,339.555,13.321,99.163,-0.0087503
31.97,340.055,13.321,99.158,-0.0091351
32.02,340.555,13.32,99.154,-0.0091060
32.07,341.056,13.319,99.149,-0.0093715
32.12,341.556,13.319,99.145,-0.0090450
32.17,342.056,13.318,99.14,-0.0092202
32.22,342.556,13.318,99.136,-0.0092999
32.27,343.056,13.317,99.131,-0.0095064
32.32,343.556,13.316,99.127,-0.0091192
32.37,344.056,13.316,99.122,-0.0091075
32.42,344.556,13.315,99.117,-0.0087511
32.47,345.056,13.315,99.113,-0.0092271
32.52,345.556,13.314,99.108,-0.0092525
32.57,346.056,13.313,99.104,-0.0089872
32.62,346.557,13.313,99.099,-0.0090917
32.67,347.057,13.312,99.094,-0.0091034
32.72,347.557,13.311,99.09,-0.0093475
32.77,348.057,13.311,99.085,-0.0094089
32.82,348.557,13.31,99.08,-0.0095006
32.87,349.057,13.31,99.075,-0.0093716
32.92,349.557,13.309,99.071,-0.0098768
32.97,350.057,13.308,99.066,-0.0098696
33.02,350.557,13.308,99.061,-0.0099908
33.07,351.057,13.307,99.056,-0.0094728
33.12,351.557,13.306,99.051,-0.0097420
33.17,352.058,13.306,99.047,-0.0098263
33.22,352.558,13.305,99.042,-0.0097859
33.27,353.058,13.304,99.037,-0.0096857
33.32,353.558,13.304,99.032,-0.0090004
33.37,354.058,13.303,99.027,-0.0096382
33.42,354.558,13.302,99.022,-0.0096382
33.47,355.058,13.302,99.017,-0.0100238
33.52,355.558,13.301,99.013,-0.0098075
33.57,356.058,13.3,99.008,-0.0100000
33.62,356.558,13.3,99.003,-0.0105505
33.67,357.058,13.299,98.998,-0.0104948
33.72,357.558,13.298,98.993,-0.0102564
33.77,358.059,13.298,98.988,-0.0102069
33.82,358.559,13.297,98.982,-0.0105905
33.87,359.059,13.296,98.977,-0.0103537
33.92,359.559,13.296,98.972,-0.0104950
33.97,360.059,13.295,98.967,-0.0101686
34.02,360.559,13.294,98.962,-0.0102031
34.07,361.059,13.294,98.957,-0.0103385
34.12,361.559,13.293,98.952,-0.0103480
34.17,362.059,13.292,98.947,-0.0098901
34.22,362.559,13.292,98.942,-0.0102144
34.27,363.059,13.291,98.936,-0.0100733
34.32,363.56,13.29,98.931,-0.0102106
34.37,364.06,13.29,98.926,-0.0100660
34.42,364.56,13.289,98.921,-0.0101611
34.47,365.06,13.288,98.916,-0.0102508
34.52,365.56,13.287,98.91,-0.0108915
34.57,366.06,13.287,98.905,-0.0103880
34.62,366.56,13.286,98.899,-0.0106286
34.67,367.06,13.285,98.894,-0.0103995
34.72,367.56,13.285,98.889,-0.0107522
34.77,368.06,13.284,98.883,-0.0108457
34.82,368.56,13.283,98.878,-0.0110267
34.87,369.061,13.282,98.873,-0.0111162
34.92,369.561,13.282,98.867,-0.0110288
34.97,370.061,13.281,98.862,-0.0112242
35.02,370.561,13.28,98.856,-0.0110806
35.07,371.061,13.279,98.851,-0.0112576
35.12,371.561,13.279,98.845,-0.0113070
35.17,372.061,13.278,98.839,-0.0115022
35.22,372.561,13.277,98.834,-0.0109935
35.27,373.061,13.276,98.828,-0.0107960
35.32,373.561,13.276,98.823,-0.0110757
35.37,374.061,13.275,98.817,-0.0114650
35.42,374.562,13.274,98.811,-0.0114754
35.47,375.062,13.273,98.805,-0.0116831
35.52,375.562,13.272,98.799,-0.0116503
35.57,376.062,13.272,98.793,-0.0120070
35.62,376.562,13.271,98.787,-0.0119069
35.67,377.062,13.27,98.781,-0.0123400
35.72,377.562,13.269,98.775,-0.0125870
35.77,378.062,13.268,98.769,-0.0126031
35.82,378.562,13.268,98.763,-0.0126147
35.87,379.062,13.267,98.756,-0.0126536
35.92,379.562,13.266,98.75,-0.0126901
35.97,380.063,13.265,98.743,-0.0129073
36.02,380.563,13.264,98.737,-0.0132857
36.07,381.063,13.263,98.73,-0.0135580
36.12,381.563,13.262,98.724,-0.0134181
36.17,382.063,13.261,98.717,-0.0134974
36.22,382.563,13.261,98.71,-0.0136704
36.27,383.063,13.26,98.704,-0.0139550
36.32,383.563,13.259,98.697,-0.0142321
36.37,384.063,13.258,98.689,-0.0141406
36.42,384.563,13.257,98.682,-0.0140517
36.47,385.063,13.256,98.675,-0.0145093
36.52,385.563,13.255,98.668,-0.0145338
36.57,386.064,13.254,98.66,-0.0149534
36.62,386.564,13.253,98.653,-0.0149452
36.67,387.064,13.252,98.645,-0.0154421
36.72,387.564,13.251,98.637,-0.0157281
36.77,388.064,13.25,98.63,-0.0158111
36.82,388.564,13.249,98.621,-0.0163948
36.87,389.064,13.248,98.613,-0.0165448
36.92,389.564,13.246,98.605,-0.0170102
36.97,390.064,13.245,98.597,-0.0172901
37.02,390.564,13.244,98.588,-0.0173814
37.07,391.064,13.243,98.579,-0.0172146
37.12,391.565,13.242,98.57,-0.0180073
37.17,392.065,13.241,98.561,-0.0183373
37.22,392.565,13.239,98.552,-0.0184880
37.27,393.065,13.238,98.543,-0.0192308
37.32,393.565,13.237,98.533,-0.0193471
37.37,394.065,13.235,98.523,-0.0200532
37.42,394.565,13.234,98.513,-0.0206499
37.47,395.065,13.233,98.503,-0.0205278
37.52,395.565,13.231,98.493,-0.0208867
37.57,396.065,13.23,98.482,-0.0212902
37.62,396.565,13.228,98.471,-0.0218921
37.67,397.066,13.227,98.46,-0.0224154
37.72,397.566,13.225,98.449,-0.0229517
37.77,398.066,13.224,98.437,-0.0236899
37.82,398.566,13.222,98.425,-0.0243144
37.87,399.066,13.221,98.413,-0.0241906
37.92,399.566,13.219,98.401,-0.0247253
37.97,400.066,13.217,98.388,-0.0251974
38.02,400.566,13.216,98.375,-0.0256340
38.07,401.066,13.214,98.363,-0.0260014
38.12,401.566,13.212,98.349,-0.0261927
38.17,402.066,13.21,98.336,-0.0268315
38.22,402.567,13.208,98.323,-0.0272187
38.27,403.067,13.207,98.309,-0.0281032
38.32,403.567,13.205,98.295,-0.0282155
38.37,404.067,13.203,98.281,-0.0283581
38.42,404.567,13.201,98.267,-0.0287351
38.47,405.067,13.199,98.252,-0.0301652
38.52,405.567,13.197,98.237,-0.0290613
38.57,406.067,13.195,98.222,-0.0300604
38.62,406.567,13.193,98.207,-0.0306319
38.67,407.067,13.191,98.192,-0.0307026
38.72,407.567,13.189,98.176,-0.0316312
38.77,408.068,13.187,98.16,-0.0327539
38.82,408.568,13.184,98.144,-0.0335137
38.87,409.068,13.182,98.127,-0.0341430
38.92,409.568,13.18,98.109,-0.0348432
38.97,410.068,13.177,98.092,-0.0357665
39.02,410.568,13.175,98.073,-0.0367337
39.07,411.068,13.172,98.055,-0.0379481
39.12,411.568,13.17,98.035,-0.0400239
39.17,412.068,13.167,98.015,-0.0411468
39.22,412.568,13.164,97.994,-0.0425073
39.27,413.068,13.161,97.973,-0.0439047
39.32,413.568,13.158,97.951,-0.0449151
39.37,414.069,13.155,97.928,-0.0466179
39.42,414.569,13.152,97.904,-0.0477800
39.47,415.069,13.149,97.879,-0.0497531
39.52,415.569,13.146,97.854,-0.0516925
39.57,416.069,13.142,97.828,-0.0535714
39.62,416.569,13.138,97.801,-0.0550513
39.67,417.069,13.135,97.773,-0.0571953
39.72,417.569,13.131,97.744,-0.0589877
39.77,418.069,13.127,97.714,-0.0612096
39.82,418.569,13.122,97.682,-0.0637675
39.87,419.069,13.118,97.65,-0.0658207
39.92,419.57,13.114,97.616,-0.0685728
39.97,420.07,13.109,97.582,-0.0705434
40.02,420.57,13.104,97.546,-0.0729051
40.07,421.07,13.099,97.509,-0.0747930
40.12,421.57,13.094,97.471,-0.0775262
40.17,422.07,13.089,97.431,-0.0795310
40.22,422.57,13.083,97.39,-0.0835165
40.27,423.07,13.077,97.345,-0.0881203
40.32,423.57,13.071,97.299,-0.1005300
40.37,424.07,13.064,97.248,-0.1049840
40.42,424.57,13.057,97.194,-0.1127690
40.47,425.071,13.049,97.135,-0.1199530
40.52,425.571,13.041,97.077,-0.1208200
40.57,426.071,13.033,97.014,-0.1280100
40.62,426.571,13.024,96.948,-0.1359900
40.67,427.071,13.014,96.879,-0.1447900
40.72,427.571,13.005,96.807,-0.1396980
40.77,428.071,12.995,96.733,-0.1500460
40.82,428.571,12.985,96.656,-0.1586340
40.87,429.071,12.974,96.576,-0.1601840
40.92,429.571,12.963,96.495,-0.1651100
40.97,430.071,12.952,96.411,-0.1688360
41.02,430.572,12.94,96.324,-0.1822430
41.07,431.072,12.928,96.235,-0.1895720
41.12,431.572,12.915,96.141,-0.1879700
41.17,432.072,12.902,96.041,-0.1987810
41.22,432.572,12.888,95.937,-0.2120530
41.27,433.072,12.874,95.83,-0.2117890
41.32,433.572,12.859,95.719,-0.2316510
41.37,434.072,12.843,95.604,-0.2516060
41.42,434.572,12.826,95.477,-0.2543530
41.47,435.072,12.809,95.35,-0.2621370
41.52,435.572,12.791,95.217,-0.2628590
41.57,436.073,12.773,95.079,-0.2743920
41.62,436.573,12.754,94.941,-0.2918410
41.67,437.073,12.734,94.791,-0.3127510
41.72,437.573,12.713,94.636,-0.3177690
41.77,438.073,12.691,94.473,-0.3293020
41.82,438.573,12.668,94.301,-0.3614270
41.87,439.073,12.643,94.112,-0.3853670
41.92,439.573,12.616,93.915,-0.3962920
41.97,440.073,12.588,93.705,-0.4288450
42.02,440.573,12.559,93.485,-0.4734890
42.07,441.073,12.528,93.255,-0.4624800
42.12,441.573,12.497,93.024,-0.4765310
42.17,442.074,12.464,92.783,-0.4897970
42.22,442.574,12.431,92.532,-0.4794160
42.27,443.074,12.398,92.287,-0.4849040
42.32,443.574,12.365,92.041,-0.4886030
42.37,444.074,12.33,91.786,-0.5433260
42.42,444.574,12.294,91.513,-0.5790940
42.47,445.074,12.253,91.214,-0.6035340
42.52,445.574,12.211,90.897,-0.6597170
42.57,446.074,12.166,90.559,-0.6935170
42.62,446.574,12.118,90.206,-0.7081340
42.67,447.074,12.069,89.838,-0.7365710
42.72,447.575,12.018,89.465,-0.7316850
42.77,448.075,11.966,89.078,-0.7623510
42.82,448.575,11.911,88.666,-0.8318220
42.87,449.075,11.854,88.237,-0.9321270
42.92,449.575,11.792,87.778,-0.9720390
42.97,450.075,11.728,87.3,-0.9869510
43.02,450.575,11.66,86.794,-1.03054
43.07,451.075,11.59,86.275,-1.04587
43.12,451.575,11.52,85.754,-1.01214
43.17,452.075,11.448,85.214,-1.04641
43.22,452.575,11.375,84.671,-1.1192
43.27,453.076,11.295,84.079,-1.18131
43.32,453.576,11.211,83.454,-1.23572
43.37,454.076,11.127,82.83,-1.28104
43.42,454.576,11.047,82.233,-1.23842
43.47,455.076,10.961,81.589,-1.37157
43.52,455.576,10.865,80.88,-1.41265
43.57,456.076,10.762,80.115,-1.56843
43.62,456.576,10.658,79.337,-1.53601
43.67,457.076,10.555,78.572,-1.58326
43.72,457.576,10.448,77.771,-1.61593
43.77,458.076,10.333,76.918,-1.66911
43.82,458.577,10.222,76.09,-1.75207
43.87,459.077,10.102,75.196,-1.92835
43.92,459.577,9.97,74.219,-2.0367
43.97,460.077,9.836,73.218,-2.004
44.02,460.577,9.695,72.169,-2.13275
44.07,461.077,9.545,71.05,-2.05428
44.12,461.577,9.4,69.973,-2.25087
44.17,462.077,9.247,68.834,-2.34375
44.22,462.577,9.09,67.662,-2.34081
44.27,463.077,8.922,66.412,-2.61715
44.32,463.577,8.752,65.149,-2.54845
44.37,464.078,8.576,63.843,-2.6011
44.42,464.578,8.394,62.487,-2.70905
44.47,465.078,8.213,61.137,-2.71306
44.52,465.578,8.025,59.741,-2.85987
44.57,466.078,7.831,58.295,-3.00781
44.62,466.578,7.625,56.764,-3.15296
44.67,467.078,7.412,55.173,-3.06337
44.72,467.578,7.196,53.564,-3.24004
44.77,468.078,6.968,51.866,-3.05774
44.82,468.578,6.753,50.265,-3.44267
44.87,469.078,6.517,48.509,-3.81528
44.92,469.578,6.292,46.835,-3.21279
44.97,470.079,6.073,45.211,-3.38463
45.02,470.579,5.85,43.547,-2.84312
45.07,471.079,5.637,41.96,-3.28271
45.12,471.579,5.42,40.343,-3.33344
45.17,472.079,5.185,38.6,-3.48528
45.22,472.579,4.943,36.797,-3.64344
45.27,473.079,4.692,34.93,-3.83192
45.32,473.579,4.439,33.042,-3.77779
45.37,474.079,4.194,31.216,-3.65645
45.42,474.579,3.937,29.304,-4.52032
45.47,475.079,3.695,27.503,-3.52615
45.52,475.58,3.463,25.778,-3.51036
45.57,476.08,3.233,24.069,-3.36154
45.62,476.58,3.005,22.366,-3.3482
45.67,477.08,2.777,20.675,-3.24887
45.72,477.58,2.556,19.028,-3.27908
45.77,478.08,2.339,17.414,-3.14495
45.82,478.58,2.125,15.819,-3.09864
45.87,479.08,1.919,14.283,-2.98131
45.92,479.58,1.719,12.799,-2.92413
45.97,480.08,1.529,11.384,-2.72382
46.02,480.58,1.353,10.068,-2.60587
46.07,481.081,1.187,8.84,-2.37818
46.12,481.581,1.029,7.658,-2.15529
46.17,482.081,0.8850000,6.588,-2.05993
46.22,482.581,0.7530000,5.602,-1.89101
46.26,483.081,0.6380000,4.749,-1.64489
46.31,483.581,0.5340000,3.975,-1.40474
46.36,484.081,0.4450000,3.313,-1.19165
46.41,484.581,0.3700000,2.756,-0.9890820
46.46,485.081,0.3120000,2.32,-0.7950230
46.51,485.581,0.2630000,1.957,-0.6491970
46.56,486.081,0.2250000,1.674,-0.5099330
46.61,486.582,0.1950000,1.455,-0.3818700
46.66,487.082,0.1740000,1.293,-0.2733050
46.71,487.582,0.1580000,1.177,-0.1855840
46.76,488.082,0.1480000,1.1,-0.1198970
46.81,488.582,0.1410000,1.052,-0.0706931
46.86,489.082,0.1380000,1.026,-0.0390138
46.91,489.582,0.1350000,1.006,-0.0404577
46.96,490.082,0.1320000,0.9860000,-0.0372636
47.01,490.582,0.1300000,0.9690000,-0.0321893
47.06,491.082,0.1280000,0.9540000,-0.0268497
47.11,491.582,0.1270000,0.9420000,-0.0218765
47.16,492.083,0.1250000,0.9320000,-0.0179175
47.21,492.583,0.1240000,0.9250000,-0.0141235
47.26,493.083,0.1230000,0.9180000,-0.0110433
47.32,493.583,0.1230000,0.9130000,-0.0090017
47.37,494.083,0.1220000,0.9090000,-0.0074586
47.42,494.583,0.1220000,0.9060000,-0.0057855
47.47,495.083,0.1210000,0.9040000,-0.0040743
47.52,495.583,0.1210000,0.9020000,-0.0033594
47.57,496.083,0.1210000,0.9000000,-0.0025598
47.62,496.583,0.1210000,0.8990000,-0.0020086
47.67,497.083,0.1210000,0.8980000,-0.0015288
47.72,497.583,0.1210000,0.8970000,-0.0012316
47.77,498.084,0.1200000,0.8960000,-0.0013734
47.82,498.584,0.1200000,0.8960000,-0.0008812
47.87,499.084,0.1200000,0.8960000,-0.0011876
47.92,499.584,0.1200000,0.8950000,-0.0008332
47.97,500.084,0.1200000,0.8950000,-0.0004903
48.02,500.584,0.1200000,0.8950000,-0.0001267
48.07,501.084,0.1200000,0.8940000,-0.0001916
48.12,501.584,0.1200000,0.8940000,0.0000212
48.17,502.084,0.1200000,0.8940000,-0.0002297
48.22,502.584,0.1200000,0.8940000,-0.0003080
48.26,503.084,0.1200000,0.8940000,-0.0001051
48.31,503.585,0.1200000,0.8940000,-0.0003345
48.36,504.085,0.1200000,0.8940000,-0.0000118
48.41,504.585,0.1200000,0.8940000,-0.0000731
48.46,505.085,0.1200000,0.8940000,-0.0002123
48.51,505.585,0.1200000,0.8940000,0.0000434
48.56,506.085,0.1200000,0.8940000,-0.0002572
48.61,506.585,0.1200000,0.8940000,-0.0002691
48.66,507.085,0.1200000,0.8940000,-0.0004333
48.71,507.585,0.1200000,0.8930000,-0.0004961
48.76,508.085,0.1200000,0.8930000,-0.0001343
48.81,508.585,0.1200000,0.8930000,0.0000215
48.86,509.086,0.1200000,0.8930000,-0.0002912
48.91,509.586,0.1200000,0.8930000,0.0002769
48.96,510.086,0.1200000,0.8930000,0.0000172
49.01,510.586,0.1200000,0.8930000,-0.0000607
49.06,511.086,0.1200000,0.8930000,-0.0002582
49.11,511.586,0.1200000,0.8930000,-0.0000736
49.16,512.086,0.1200000,0.8930000,0.0001264
49.21,512.586,0.1200000,0.8930000,-0.0002851
49.26,513.086,0.1200000,0.8930000,0.0003471
49.31,513.586,0.1200000,0.8930000,-0.0003995
49.36,514.086,0.1200000,0.8930000,0.0001462
49.41,514.587,0.1200000,0.8930000,0.0000959
49.46,515.087,0.1200000,0.8930000,-0.0002071
49.51,515.587,0.1200000,0.8930000,-0.0000161
49.56,516.087,0.1200000,0.8930000,0.0001731
49.61,516.587,0.1200000,0.8930000,-0.0003942
49.66,517.087,0.1200000,0.8930000,-0.0001388
49.71,517.587,0.1200000,0.8930000,-0.0001384
49.76,518.087,0.1200000,0.8930000,-0.0008720
49.81,518.587,0.1200000,0.8930000,0.0000322
49.86,519.087,0.1200000,0.8930000,-0.0003144
49.91,519.587,0.1200000,0.8920000,-0.0001263
49.96,520.088,0.1200000,0.8920000,0.0000132
50.01,520.588,0.1200000,0.8920000,-0.0000346
50.06,521.088,0.1200000,0.8920000,0.0001483
50.11,521.588,0.1200000,0.8920000,-0.0002283
50.16,522.088,0.1200000,0.8920000,-0.0004588
50.21,522.588,0.1200000,0.8920000,-0.0001142
50.26,523.088,0.1200000,0.8920000,-0.0000833
50.31,523.588,0.1200000,0.8920000,-0.0002322
50.36,524.088,0.1200000,0.8920000,-0.0002243
50.41,524.588,0.1200000,0.8920000,0.0000758
50.46,525.088,0.1200000,0.8920000,0.0000898
50.51,525.588,0.1200000,0.8920000,0.0000551
50.56,526.089,0.1200000,0.8920000,0.0001789
50.61,526.589,0.1200000,0.8920000,0.0000477
50.66,527.089,0.1200000,0.8920000,0.0002089
50.71,527.589,0.1200000,0.8920000,0.0000425
50.76,528.089,0.1200000,0.8920000,-0.0001317
50.81,528.589,0.1200000,0.8920000,-0.0003041
50.86,529.089,0.1200000,0.8920000,-0.0000597
50.91,529.589,0.1200000,0.8920000,0.0001108
50.96,530.089,0.1200000,0.8920000,0.0001619
51.01,530.589,0.1200000,0.8920000,0.0000219
51.06,531.089,0.1200000,0.8920000,-0.0002744
51.11,531.59,0.1200000,0.8920000,0.0000190
51.16,532.09,0.1200000,0.8920000,-0.0003297
51.21,532.59,0.1200000,0.8910000,-0.0003768
51.26,533.09,0.1200000,0.8910000,-0.0005198
51.31,533.59,0.1200000,0.8910000,-0.0004805
51.36,534.09,0.1200000,0.8910000,-0.0002240
51.41,534.59,0.1200000,0.8910000,-0.0003170
51.46,535.09,0.1200000,0.8910000,-0.0004575
51.51,535.59,0.1200000,0.8910000,-0.0003112
51.56,536.09,0.1200000,0.8900000,-0.0002297
51.61,536.59,0.1200000,0.8900000,-0.0002510
51.66,537.091,0.1200000,0.8900000,0.0001386
51.71,537.591,0.1200000,0.8900000,0.0001267
51.76,538.091,0.1200000,0.8900000,0.0001287
51.81,538.591,0.1200000,0.8900000,-0.0000082
51.86,539.091,0.1200000,0.8900000,-0.0001177
51.91,539.591,0.1200000,0.8900000,0.0004111
51.96,540.091,0.1200000,0.8900000,-0.0004312
52.01,540.591,0.1200000,0.8900000,-0.0001123
52.06,541.091,0.1200000,0.8900000,-0.0008586
52.11,541.591,0.1200000,0.8900000,-0.0002688
52.16,542.091,0.1200000,0.8900000,-0.0003628
52.21,542.592,0.1200000,0.8900000,-0.0002137
52.26,543.092,0.1190000,0.8890000,-0.0004583
52.31,543.592,0.1190000,0.8890000,-0.0002679
52.36,544.092,0.1190000,0.8890000,-0.0001180
52.41,544.592,0.1190000,0.8890000,-0.0001905
52.46,545.092,0.1190000,0.8890000,0.0003743
52.51,545.592,0.1190000,0.8890000,-0.0000225
52.56,546.092,0.1190000,0.8890000,0.0001683
52.61,546.592,0.1190000,0.8890000,-0.0003844
52.66,547.092,0.1190000,0.8890000,-0.0004444
52.71,547.592,0.1190000,0.8890000,-0.0003967
52.76,548.093,0.1190000,0.8890000,0.0000233
52.81,548.593,0.1190000,0.8890000,-0.0007694
52.86,549.093,0.1190000,0.8880000,-0.0005477
52.91,549.593,0.1190000,0.8880000,-0.0005090
52.96,550.093,0.1190000,0.8880000,-0.0002983
53.01,550.593,0.1190000,0.8880000,-0.0003430
53.06,551.093,0.1190000,0.8880000,-0.0002128
53.11,551.593,0.1190000,0.8880000,0.0001313
53.16,552.093,0.1190000,0.8870000,0.0001331
53.21,552.593,0.1190000,0.8870000,-0.0000018
53.26,553.093,0.1190000,0.8870000,-0.0001584
53.31,553.593,0.1190000,0.8870000,-0.0001214
53.36,554.094,0.1190000,0.8870000,0.0000221
53.41,554.594,0.1190000,0.8870000,-0.0003488
53.46,555.094,0.1190000,0.8870000,-0.0001297
53.51,555.594,0.1190000,0.8870000,-0.0004339
53.56,556.094,0.1190000,0.8860000,-0.0004874
53.61,556.594,0.1190000,0.8860000,-0.0003942
53.66,557.094,0.1190000,0.8860000,-0.0004726
53.71,557.594,0.1190000,0.8860000,-0.0010666
53.76,558.094,0.1190000,0.8850000,-0.0005272
53.81,558.594,0.1190000,0.8850000,-0.0005945
53.86,559.094,0.1190000,0.8850000,-0.0006017
53.91,559.595,0.1190000,0.8850000,-0.0006399
53.96,560.095,0.1190000,0.8850000,-0.0004592
54.01,560.595,0.1190000,0.8840000,-0.0005215
54.06,561.095,0.1190000,0.8840000,-0.0001692
54.11,561.595,0.1190000,0.8840000,-0.0004929
54.16,562.095,0.1190000,0.8840000,-0.0003326
54.21,562.595,0.1190000,0.8830000,-0.0005418
54.26,563.095,0.1190000,0.8830000,-0.0003449
54.31,563.595,0.1190000,0.8830000,-0.0007166
54.36,564.095,0.1190000,0.8820000,-0.0007490
54.41,564.595,0.1190000,0.8820000,-0.0005906
54.46,565.096,0.1180000,0.8820000,-0.0007043
54.51,565.596,0.1180000,0.8820000,-0.0005158
54.56,566.096,0.1180000,0.8810000,-0.0010855
54.61,566.596,0.1180000,0.8810000,-0.0006142
54.66,567.096,0.1180000,0.8810000,-0.0009170
54.71,567.596,0.1180000,0.8800000,-0.0007547
54.76,568.096,0.1180000,0.8800000,-0.0005327
54.81,568.596,0.1180000,0.8800000,-0.0006416
54.86,569.096,0.1180000,0.8790000,-0.0008209
54.91,569.596,0.1180000,0.8790000,-0.0007837
54.96,570.096,0.1180000,0.8790000,-0.0005713
55.01,570.597,0.1180000,0.8780000,-0.0006907
55.06,571.097,0.1180000,0.8780000,-0.0008469
55.11,571.597,0.1180000,0.8770000,-0.0009323
55.16,572.097,0.1180000,0.8770000,-0.0009147
55.21,572.597,0.1180000,0.8760000,-0.0011188
55.26,573.097,0.1180000,0.8760000,-0.0009181
55.31,573.597,0.1180000,0.8750000,-0.0011168
55.36,574.097,0.1180000,0.8750000,-0.0013587
55.41,574.597,0.1170000,0.8740000,-0.0012589
55.46,575.097,0.1170000,0.8740000,-0.0012391
55.51,575.597,0.1170000,0.8730000,-0.0010646
55.56,576.098,0.1170000,0.8730000,-0.0009837
55.61,576.598,0.1170000,0.8720000,-0.0012606
55.66,577.098,0.1170000,0.8720000,-0.0008747
55.71,577.598,0.1170000,0.8710000,-0.0011386
55.76,578.098,0.1170000,0.8700000,-0.0008975
55.81,578.598,0.1170000,0.8700000,-0.0007473
55.86,579.098,0.1170000,0.8690000,-0.0009231
55.91,579.598,0.1170000,0.8690000,-0.0015147
55.96,580.098,0.1170000,0.8680000,-0.0013195
56.01,580.598,0.1170000,0.8680000,-0.0010720
56.06,581.098,0.1160000,0.8670000,-0.0014892
56.11,581.598,0.1160000,0.8660000,-0.0012858
56.16,582.099,0.1160000,0.8660000,-0.0010414
56.21,582.599,0.1160000,0.8650000,-0.0009939
56.26,583.099,0.1160000,0.8650000,-0.0012393
56.31,583.599,0.1160000,0.8640000,-0.0009079
56.36,584.099,0.1160000,0.8640000,-0.0012742
56.41,584.599,0.1160000,0.8630000,-0.0008759
56.46,585.099,0.1160000,0.8620000,-0.0009339
56.51,585.599,0.1160000,0.8620000,-0.0009508
56.56,586.099,0.1160000,0.8610000,-0.0007412
56.61,586.599,0.1160000,0.8610000,-0.0011506
56.66,587.099,0.1160000,0.8600000,-0.0012459
56.71,587.6,0.1150000,0.8600000,-0.0010241
56.76,588.1,0.1150000,0.8590000,-0.0010309
56.81,588.6,0.1150000,0.8590000,-0.0004448
56.86,589.1,0.1150000,0.8580000,-0.0008917
56.91,589.6,0.1150000,0.8580000,-0.0007924
56.95,590,0.1150000,0.8570000,-0.0013611