File: R/rHDPE_App/app/www/Output/TGA/Condensed_Data/Resin14_1_.csv
0.7800000,30,8.884,100.025,0.0101082
0.8500000,30.5001,8.884,100.029,0.0114762
0.9100000,31.0002,8.884,100.032,0.0073740
0.9800000,31.5003,8.885,100.034,0.0058119
1.04,32.0004,8.885,100.037,0.0033052
1.1,32.5004,8.885,100.04,0.0076679
1.16,33.0005,8.885,100.042,0.0062976
1.21,33.5006,8.885,100.044,0.0020643
1.27,34.0007,8.886,100.046,0.0027192
1.33,34.5008,8.886,100.048,0.0066110
1.38,35.0009,8.886,100.05,0.0010780
1.44,35.501,8.886,100.052,0.0057915
1.49,36.0011,8.886,100.053,0.0011126
1.55,36.5012,8.886,100.055,0.0062821
1.61,37.0013,8.887,100.057,0.0005003
1.66,37.5013,8.887,100.058,0.0036348
1.71,38.0014,8.887,100.059,0.0016397
1.77,38.5015,8.887,100.061,0.0042984
1.82,39.0016,8.887,100.062,0.0031962
1.88,39.5017,8.887,100.063,0.0009271
1.93,40.0018,8.887,100.065,0.0029117
1.98,40.5019,8.887,100.066,0.0029069
2.03,41.002,8.887,100.067,0.0003881
2.09,41.5021,8.888,100.068,0.0019323
2.14,42.0021,8.888,100.069,0.0030856
2.19,42.5022,8.888,100.07,0.0019244
2.24,43.0023,8.888,100.071,0.0020642
2.3,43.5024,8.888,100.073,0.0025895
2.35,44.0025,8.888,100.074,0.0021938
2.4,44.5026,8.888,100.075,0.0010945
2.45,45.0027,8.888,100.076,0.0013296
2.51,45.5028,8.888,100.077,0.0030833
2.56,46.0029,8.888,100.078,0.0033201
2.61,46.5029,8.889,100.079,0.0020866
2.66,47.003,8.889,100.08,0.0004727
2.71,47.5031,8.889,100.081,0.0008019
2.76,48.0032,8.889,100.082,0.0024526
2.81,48.5033,8.889,100.083,0.0024506
2.87,49.0034,8.889,100.084,0.0021653
2.92,49.5035,8.889,100.085,0.0022581
2.97,50.0036,8.889,100.086,0.0014112
3.02,50.5037,8.889,100.088,0.0023987
3.07,51.0038,8.889,100.089,0.0016903
3.12,51.5038,8.889,100.09,0.0024422
3.18,52.0039,8.89,100.091,0.0025333
3.23,52.504,8.89,100.092,0.0015900
3.28,53.0041,8.89,100.093,0.0018695
3.33,53.5042,8.89,100.094,0.0028014
3.38,54.0043,8.89,100.095,0.0026586
3.43,54.5044,8.89,100.096,0.0021907
3.48,55.0045,8.89,100.097,0.0018172
3.53,55.5046,8.89,100.098,0.0012117
3.58,56.0046,8.89,100.099,0.0017235
3.63,56.5047,8.89,100.1,0.0019532
3.68,57.0048,8.89,100.101,0.0026015
3.74,57.5049,8.891,100.102,0.0022726
3.79,58.005,8.891,100.103,0.0024179
3.84,58.5051,8.891,100.104,0.0019944
3.89,59.0052,8.891,100.105,0.0020381
3.94,59.5053,8.891,100.106,0.0017129
3.99,60.0054,8.891,100.107,0.0015278
4.04,60.5054,8.891,100.108,0.0015269
4.09,61.0055,8.891,100.109,0.0017112
4.14,61.5056,8.891,100.11,0.0023591
4.19,62.0057,8.891,100.111,0.0017100
4.24,62.5058,8.891,100.112,0.0021239
4.29,63.0059,8.892,100.113,0.0021231
4.34,63.506,8.892,100.114,0.0021695
4.39,64.0061,8.892,100.115,0.0021234
4.44,64.5062,8.892,100.116,0.0015231
4.49,65.0063,8.892,100.117,0.0013386
4.54,65.5063,8.892,100.118,0.0016150
4.59,66.0064,8.892,100.119,0.0014304
4.64,66.5065,8.892,100.12,0.0019368
4.69,67.0066,8.892,100.12,0.0017519
4.75,67.5067,8.892,100.121,0.0019799
4.8,68.0068,8.892,100.122,0.0021149
4.85,68.5069,8.892,100.123,0.0023451
4.9,69.007,8.893,100.124,0.0021615
4.95,69.5071,8.893,100.125,0.0017947
5,70.0071,8.893,100.126,0.0018043
5.05,70.5072,8.893,100.127,0.0026712
5.1,71.0073,8.893,100.128,0.0018383
5.15,71.5074,8.893,100.129,0.0019286
5.2,72.0075,8.893,100.13,0.0018878
5.25,72.5076,8.893,100.13,0.0025761
5.3,73.0077,8.893,100.131,0.0021154
5.35,73.5078,8.893,100.132,0.0021182
5.4,74.0079,8.893,100.133,0.0014205
5.45,74.5079,8.893,100.134,0.0018299
5.5,75.008,8.893,100.135,0.0026110
5.55,75.5081,8.894,100.136,0.0015136
5.6,76.0082,8.894,100.137,0.0012387
5.65,76.5083,8.894,100.137,0.0016968
5.7,77.0084,8.894,100.138,0.0017887
5.75,77.5085,8.894,100.139,0.0018328
5.8,78.0086,8.894,100.14,0.0018334
5.85,78.5087,8.894,100.14,0.0011914
5.9,79.0088,8.894,100.141,0.0013292
5.95,79.5088,8.894,100.141,0.0017864
6,80.0089,8.894,100.142,0.0018321
6.05,80.509,8.894,100.143,0.0020620
6.1,81.0091,8.894,100.144,0.0025680
6.15,81.5092,8.894,100.145,0.0014209
6.2,82.0093,8.894,100.145,0.0011439
6.25,82.5094,8.894,100.146,0.0016939
6.3,83.0095,8.894,100.146,0.0019696
6.35,83.5096,8.895,100.147,0.0010062
6.4,84.0096,8.895,100.148,0.0013711
6.45,84.5097,8.895,100.148,0.0012347
6.5,85.0098,8.895,100.149,0.0019682
6.55,85.5099,8.895,100.149,0.0015568
6.6,86.01,8.895,100.15,0.0013270
6.65,86.5101,8.895,100.151,0.0023330
6.7,87.0102,8.895,100.152,0.0015093
6.75,87.5103,8.895,100.152,0.0021966
6.8,88.0104,8.895,100.153,0.0018328
6.85,88.5104,8.895,100.154,0.0009171
6.9,89.0105,8.895,100.154,0.0011013
6.95,89.5106,8.895,100.155,0.0014231
7,90.0107,8.895,100.155,0.0010562
7.05,90.5108,8.895,100.156,0.0014230
7.1,91.0109,8.895,100.157,0.0019725
7.15,91.511,8.895,100.157,0.0009178
7.2,92.0111,8.896,100.158,0.0008250
7.25,92.5112,8.896,100.158,0.0015575
7.3,93.0113,8.896,100.159,0.0012819
7.35,93.5113,8.896,100.16,0.0016022
7.4,94.0114,8.896,100.16,0.0013280
7.45,94.5115,8.896,100.161,0.0017867
7.5,95.0116,8.896,100.161,0.0014675
7.55,95.5117,8.896,100.162,0.0020182
7.6,96.0118,8.896,100.162,0.0009630
7.65,96.5119,8.896,100.163,0.0006406
7.7,97.012,8.896,100.163,0.0007312
7.75,97.5121,8.896,100.164,0.0008224
7.8,98.0121,8.896,100.164,0.0010059
7.85,98.5122,8.896,100.165,0.0013253
7.9,99.0123,8.896,100.165,0.0018294
7.95,99.5124,8.896,100.166,0.0008228
8,100.013,8.896,100.166,0.0008232
8.05,100.513,8.896,100.167,0.0007783
8.1,101.013,8.896,100.167,0.0011457
8.15,101.513,8.896,100.167,0.0011913
8.2,102.013,8.896,100.168,0.0011016
8.25,102.513,8.896,100.168,0.0005497
8.3,103.013,8.896,100.169,0.0002282
8.35,103.513,8.897,100.169,0.0004559
8.4,104.013,8.897,100.17,0.0003652
8.45,104.513,8.897,100.17,0.0002740
8.5,105.013,8.897,100.17,0.0002285
8.55,105.513,8.897,100.171,0.0002741
8.6,106.014,8.897,100.171,0.0008231
8.65,106.514,8.897,100.171,0.0002746
8.7,107.014,8.897,100.172,0.0001832
8.75,107.514,8.897,100.172,0.0005959
8.8,108.014,8.897,100.172,0.0014669
8.85,108.514,8.897,100.173,0.0005040
8.9,109.014,8.897,100.173,0.0003207
8.95,109.514,8.897,100.173,0.0005040
9,110.014,8.897,100.173,0.0004124
9.05,110.514,8.897,100.173,0.0001832
9.1,111.014,8.897,100.174,0.0008233
9.15,111.515,8.897,100.174,0.0007317
9.2,112.015,8.897,100.174,0.0008224
9.25,112.515,8.897,100.174,0.0009138
9.3,113.015,8.897,100.175,0.0003656
9.35,113.515,8.897,100.175,0.0010528
9.4,114.015,8.897,100.175,0.0005500
9.45,114.515,8.897,100.175,0.0005495
9.5,115.015,8.897,100.175,0.0008239
9.55,115.515,8.897,100.175,0.0009628
9.6,116.015,8.897,100.176,0.0005979
9.65,116.515,8.897,100.176,0.0005059
9.7,117.016,8.897,100.177,0.0010138
9.75,117.516,8.897,100.177,0.0005529
9.8,118.016,8.897,100.177,-0.0000462
9.85,118.516,8.897,100.177,-0.0001846
9.9,119.016,8.897,100.177,0.0003683
9.95,119.516,8.897,100.178,0.0012911
10,120.016,8.897,100.178,0.0004158
10.05,120.516,8.897,100.179,0.0002306
10.1,121.016,8.897,100.179,0.0004588
10.15,121.516,8.897,100.179,0.0005491
10.2,122.016,8.897,100.179,-0.0002287
10.25,122.517,8.897,100.179,-0.0001830
10.3,123.017,8.897,100.179,0.0002291
10.35,123.517,8.897,100.179,0.0004129
10.4,124.017,8.897,100.18,0.0009177
10.45,124.517,8.897,100.18,0.0006875
10.5,125.017,8.897,100.18,-0.0006406
10.55,125.517,8.897,100.18,-0.0001829
10.6,126.017,8.897,100.18,-0.0000000
10.65,126.517,8.897,100.18,0.0006845
10.7,127.017,8.897,100.18,-0.0004104
10.75,127.517,8.897,100.18,0.0000000
10.8,128.018,8.897,100.18,0.0003191
10.85,128.518,8.897,100.18,0.0004106
10.9,129.018,8.897,100.18,-0.0000457
10.95,129.518,8.897,100.18,0.0004571
11,130.018,8.898,100.18,0.0007768
11.05,130.518,8.898,100.18,-0.0001828
11.1,131.018,8.898,100.18,-0.0000457
11.15,131.518,8.898,100.181,-0.0000000
11.2,132.018,8.898,100.181,0.0002287
11.25,132.518,8.898,100.181,0.0003205
11.3,133.018,8.898,100.181,0.0001375
11.35,133.518,8.898,100.181,0.0000000
11.4,134.019,8.898,100.181,0.0002294
11.45,134.519,8.898,100.181,0.0001377
11.5,135.019,8.898,100.181,0.0004134
11.55,135.519,8.898,100.181,0.0004134
11.6,136.019,8.898,100.181,0.0006100
11.65,136.519,8.898,100.182,0.0006102
11.7,137.019,8.898,100.182,0.0000463
11.76,137.519,8.898,100.182,0.0005549
11.81,138.019,8.898,100.182,-0.0004125
11.86,138.519,8.898,100.182,0.0002264
11.9,139.019,8.898,100.183,0.0002264
11.95,139.52,8.898,100.183,0.0001826
12,140.02,8.898,100.183,0.0005058
12.05,140.52,8.898,100.183,-0.0001837
12.1,141.02,8.898,100.184,0.0003651
12.15,141.52,8.898,100.184,-0.0002721
12.2,142.02,8.898,100.184,0.0000000
12.25,142.52,8.898,100.184,0.0001819
12.3,143.02,8.898,100.184,-0.0001828
12.35,143.52,8.898,100.184,0.0007419
12.4,144.02,8.898,100.185,0.0009800
12.46,144.52,8.898,100.185,0.0014949
12.51,145.021,8.898,100.185,0.0010667
12.56,145.521,8.898,100.186,0.0007333
12.61,146.021,8.898,100.186,0.0002730
12.66,146.521,8.898,100.186,-0.0001369
12.71,147.021,8.898,100.186,-0.0001384
12.76,147.521,8.898,100.186,-0.0003224
12.81,148.021,8.898,100.186,0.0002745
12.86,148.521,8.898,100.187,-0.0000458
12.91,149.021,8.898,100.187,0.0005021
12.96,149.521,8.898,100.187,0.0001819
13.01,150.021,8.898,100.188,-0.0000453
13.06,150.522,8.898,100.188,-0.0002268
13.11,151.022,8.898,100.187,-0.0015445
13.16,151.522,8.898,100.187,-0.0002276
13.21,152.022,8.898,100.187,-0.0010507
13.26,152.522,8.898,100.186,-0.0010997
13.31,153.022,8.898,100.186,-0.0011445
13.36,153.522,8.898,100.185,-0.0020656
13.41,154.022,8.898,100.184,-0.0027591
13.46,154.522,8.898,100.183,-0.0018510
13.51,155.022,8.898,100.182,-0.0029043
13.56,155.522,8.898,100.181,-0.0028103
13.61,156.023,8.897,100.18,-0.0020338
13.66,156.523,8.897,100.179,-0.0021124
13.71,157.023,8.897,100.178,-0.0025220
13.76,157.523,8.897,100.177,-0.0011403
13.81,158.023,8.897,100.176,-0.0013680
13.86,158.523,8.897,100.175,-0.0018227
13.91,159.023,8.897,100.174,-0.0015473
13.96,159.523,8.897,100.173,-0.0014146
14.01,160.023,8.897,100.173,-0.0009153
14.06,160.523,8.897,100.172,-0.0018718
14.11,161.023,8.897,100.171,-0.0015989
14.16,161.523,8.897,100.17,-0.0010078
14.21,162.024,8.897,100.17,-0.0008684
14.26,162.524,8.896,100.169,-0.0011002
14.31,163.024,8.896,100.168,-0.0010118
14.36,163.524,8.896,100.168,-0.0011014
14.41,164.024,8.896,100.167,-0.0011926
14.46,164.524,8.896,100.167,-0.0018320
14.51,165.024,8.896,100.166,-0.0009621
14.56,165.524,8.896,100.166,-0.0005959
14.61,166.024,8.896,100.165,-0.0007383
14.66,166.524,8.896,100.165,-0.0008289
14.71,167.024,8.896,100.164,-0.0005983
14.76,167.525,8.896,100.164,-0.0001841
14.81,168.025,8.896,100.163,-0.0011492
14.86,168.525,8.896,100.163,-0.0006890
14.91,169.025,8.896,100.163,-0.0017396
14.96,169.525,8.896,100.162,-0.0012303
15.01,170.025,8.896,100.161,-0.0013164
15.06,170.525,8.896,100.161,-0.0010409
15.11,171.025,8.896,100.16,-0.0009957
15.16,171.525,8.896,100.16,-0.0008161
15.21,172.025,8.896,100.159,-0.0006822
15.26,172.525,8.896,100.158,-0.0011353
15.31,173.026,8.895,100.158,-0.0013143
15.35,173.526,8.895,100.157,-0.0015350
15.4,174.026,8.895,100.156,-0.0018478
15.45,174.526,8.895,100.155,-0.0018090
15.5,175.026,8.895,100.155,-0.0011388
15.55,175.526,8.895,100.154,-0.0014198
15.6,176.026,8.895,100.154,-0.0007351
15.65,176.526,8.895,100.153,-0.0018389
15.7,177.026,8.895,100.152,-0.0012408
15.75,177.526,8.895,100.152,-0.0014703
15.8,178.026,8.895,100.151,-0.0011900
15.85,178.527,8.895,100.15,-0.0019164
15.9,179.027,8.895,100.15,-0.0007286
15.95,179.527,8.895,100.149,-0.0010622
16,180.027,8.895,100.148,-0.0008294
16.05,180.527,8.895,100.148,-0.0011022
16.1,181.027,8.895,100.147,-0.0004605
16.15,181.527,8.895,100.147,-0.0014781
16.2,182.027,8.894,100.146,-0.0013781
16.25,182.527,8.894,100.145,-0.0013911
16.31,183.027,8.894,100.144,-0.0014385
16.36,183.527,8.894,100.144,-0.0016069
16.41,184.028,8.894,100.143,-0.0009986
16.46,184.528,8.894,100.142,-0.0016481
16.51,185.028,8.894,100.142,-0.0009272
16.56,185.528,8.894,100.141,-0.0018136
16.61,186.028,8.894,100.14,-0.0011621
16.66,186.528,8.894,100.139,-0.0016990
16.71,187.028,8.894,100.138,-0.0019257
16.76,187.528,8.894,100.138,-0.0011656
16.81,188.028,8.894,100.137,-0.0014398
16.86,188.528,8.894,100.136,-0.0026185
16.9,189.028,8.893,100.135,-0.0028125
16.95,189.528,8.893,100.134,-0.0013674
17,190.029,8.893,100.133,-0.0027114
17.05,190.529,8.893,100.132,-0.0021047
17.11,191.029,8.893,100.132,-0.0016368
17.16,191.529,8.893,100.131,-0.0022287
17.21,192.029,8.893,100.13,-0.0020454
17.26,192.529,8.893,100.129,-0.0019641
17.31,193.029,8.893,100.128,-0.0017931
17.36,193.529,8.893,100.127,-0.0023364
17.41,194.029,8.893,100.126,-0.0022483
17.46,194.529,8.893,100.125,-0.0013284
17.51,195.029,8.893,100.124,-0.0017325
17.56,195.53,8.892,100.124,-0.0006375
17.6,196.03,8.892,100.123,-0.0021257
17.65,196.53,8.892,100.122,-0.0025358
17.7,197.03,8.892,100.121,-0.0027760
17.75,197.53,8.892,100.119,-0.0027268
17.8,198.03,8.892,100.118,-0.0019443
17.85,198.53,8.892,100.117,-0.0015456
17.9,199.03,8.892,100.116,-0.0024223
17.95,199.53,8.892,100.115,-0.0019056
18,200.03,8.892,100.114,-0.0025660
18.05,200.53,8.892,100.113,-0.0021095
18.1,201.031,8.891,100.112,-0.0015763
18.15,201.531,8.891,100.111,-0.0019755
18.2,202.031,8.891,100.11,-0.0036609
18.25,202.531,8.891,100.109,-0.0027790
18.3,203.031,8.891,100.107,-0.0018318
18.35,203.531,8.891,100.106,-0.0022493
18.4,204.031,8.891,100.105,-0.0020791
18.45,204.531,8.891,100.104,-0.0019972
18.5,205.031,8.891,100.103,-0.0025210
18.55,205.531,8.891,100.102,-0.0025630
18.6,206.031,8.89,100.101,-0.0013066
18.65,206.532,8.89,100.1,-0.0015352
18.7,207.032,8.89,100.098,-0.0019969
18.75,207.532,8.89,100.097,-0.0017557
18.8,208.032,8.89,100.097,-0.0016976
18.85,208.532,8.89,100.095,-0.0018362
18.9,209.032,8.89,100.094,-0.0026031
18.95,209.532,8.89,100.093,-0.0021026
19,210.032,8.89,100.092,-0.0028435
19.05,210.532,8.89,100.091,-0.0024350
19.11,211.032,8.889,100.089,-0.0025754
19.16,211.532,8.889,100.088,-0.0027094
19.21,212.033,8.889,100.087,-0.0017901
19.26,212.533,8.889,100.086,-0.0027515
19.31,213.033,8.889,100.085,-0.0027082
19.36,213.533,8.889,100.084,-0.0022430
19.41,214.033,8.889,100.083,-0.0016867
19.46,214.533,8.889,100.082,-0.0020055
19.51,215.033,8.889,100.081,-0.0023362
19.56,215.533,8.889,100.079,-0.0024363
19.61,216.033,8.888,100.078,-0.0028059
19.66,216.533,8.888,100.076,-0.0019815
19.71,217.033,8.888,100.075,-0.0022126
19.76,217.533,8.888,100.074,-0.0025835
19.81,218.034,8.888,100.073,-0.0031865
19.86,218.534,8.888,100.071,-0.0020347
19.91,219.034,8.888,100.07,-0.0027409
19.96,219.534,8.888,100.069,-0.0023256
20.01,220.034,8.887,100.068,-0.0023141
20.06,220.534,8.887,100.067,-0.0018395
20.11,221.034,8.887,100.066,-0.0034359
20.16,221.534,8.887,100.064,-0.0027447
20.21,222.034,8.887,100.063,-0.0020629
20.26,222.534,8.887,100.061,-0.0024345
20.31,223.034,8.887,100.06,-0.0021176
20.36,223.535,8.887,100.059,-0.0022525
20.41,224.035,8.887,100.057,-0.0028873
20.46,224.535,8.886,100.056,-0.0027430
20.51,225.035,8.886,100.055,-0.0029237
20.56,225.535,8.886,100.053,-0.0020064
20.61,226.035,8.886,100.052,-0.0025571
20.66,226.535,8.886,100.051,-0.0007316
20.71,227.035,8.886,100.05,-0.0022900
20.76,227.535,8.886,100.048,-0.0040930
20.81,228.035,8.886,100.047,-0.0035605
20.86,228.535,8.885,100.045,-0.0029630
20.91,229.036,8.885,100.044,-0.0034291
20.96,229.536,8.885,100.042,-0.0037437
21.01,230.036,8.885,100.04,-0.0038678
21.07,230.536,8.885,100.039,-0.0022392
21.12,231.036,8.885,100.038,-0.0025280
21.17,231.536,8.885,100.036,-0.0025508
21.22,232.036,8.885,100.035,-0.0027300
21.27,232.536,8.884,100.033,-0.0028280
21.32,233.036,8.884,100.032,-0.0021049
21.37,233.536,8.884,100.03,-0.0029748
21.42,234.036,8.884,100.029,-0.0027273
21.46,234.537,8.884,100.027,-0.0026280
21.51,235.037,8.884,100.026,-0.0024977
21.56,235.537,8.884,100.025,-0.0029289
21.61,236.037,8.884,100.023,-0.0033388
21.66,236.537,8.883,100.022,-0.0026039
21.71,237.037,8.883,100.02,-0.0030435
21.76,237.537,8.883,100.019,-0.0023207
21.81,238.037,8.883,100.017,-0.0030776
21.86,238.537,8.883,100.016,-0.0032324
21.93,239.037,8.883,100.014,-0.0039289
21.99,239.537,8.883,100.012,-0.0028562
22.04,240.038,8.882,100.011,-0.0017581
22.1,240.538,8.882,100.01,-0.0020108
22.14,241.038,8.882,100.009,-0.0028715
22.19,241.538,8.882,100.007,-0.0030790
22.24,242.038,8.882,100.006,-0.0033586
22.29,242.538,8.882,100.004,-0.0037008
22.33,243.038,8.882,100.002,-0.0032005
22.38,243.538,8.882,100,-0.0035793
22.43,244.038,8.881,99.999,-0.0037637
22.48,244.538,8.881,99.997,-0.0030308
22.53,245.038,8.881,99.996,-0.0029906
22.58,245.538,8.881,99.994,-0.0031864
22.63,246.039,8.881,99.992,-0.0029608
22.68,246.539,8.881,99.991,-0.0033681
22.73,247.039,8.88,99.989,-0.0027531
22.78,247.539,8.88,99.987,-0.0028062
22.83,248.039,8.88,99.986,-0.0024310
22.87,248.539,8.88,99.984,-0.0034575
22.92,249.039,8.88,99.982,-0.0032589
22.97,249.539,8.88,99.981,-0.0033809
23.02,250.039,8.88,99.979,-0.0035066
23.07,250.539,8.879,99.977,-0.0032424
23.12,251.039,8.879,99.976,-0.0037091
23.17,251.54,8.879,99.974,-0.0029012
23.22,252.04,8.879,99.972,-0.0037752
23.27,252.54,8.879,99.97,-0.0031657
23.31,253.04,8.879,99.968,-0.0035852
23.36,253.54,8.879,99.966,-0.0037875
23.41,254.04,8.878,99.965,-0.0031388
23.46,254.54,8.878,99.963,-0.0035008
23.51,255.04,8.878,99.961,-0.0037284
23.56,255.54,8.878,99.959,-0.0047287
23.61,256.04,8.878,99.957,-0.0040582
23.66,256.54,8.877,99.955,-0.0037073
23.7,257.041,8.877,99.953,-0.0036175
23.75,257.541,8.877,99.951,-0.0037687
23.8,258.041,8.877,99.95,-0.0031549
23.85,258.541,8.877,99.948,-0.0035916
23.9,259.041,8.877,99.946,-0.0041756
23.94,259.541,8.877,99.944,-0.0037844
23.99,260.041,8.876,99.942,-0.0035780
24.04,260.541,8.876,99.94,-0.0032587
24.09,261.041,8.876,99.938,-0.0040887
24.14,261.541,8.876,99.936,-0.0030538
24.19,262.041,8.876,99.934,-0.0036517
24.24,262.542,8.875,99.932,-0.0034454
24.29,263.042,8.875,99.93,-0.0040628
24.35,263.542,8.875,99.928,-0.0038390
24.4,264.042,8.875,99.926,-0.0038910
24.45,264.542,8.875,99.925,-0.0035121
24.5,265.042,8.875,99.922,-0.0036697
24.55,265.542,8.874,99.92,-0.0040848
24.6,266.042,8.874,99.918,-0.0034530
24.65,266.542,8.874,99.916,-0.0032878
24.7,267.042,8.874,99.914,-0.0037084
24.75,267.542,8.874,99.912,-0.0041369
24.8,268.043,8.874,99.91,-0.0035747
24.85,268.543,8.873,99.908,-0.0040185
24.9,269.043,8.873,99.906,-0.0038700
24.95,269.543,8.873,99.904,-0.0042052
25,270.043,8.873,99.902,-0.0041226
25.05,270.543,8.873,99.9,-0.0040059
25.1,271.043,8.872,99.898,-0.0044307
25.16,271.543,8.872,99.896,-0.0045871
25.21,272.043,8.872,99.893,-0.0040751
25.26,272.543,8.872,99.891,-0.0042867
25.31,273.043,8.872,99.889,-0.0040405
25.36,273.543,8.871,99.887,-0.0047915
25.41,274.044,8.871,99.885,-0.0045480
25.46,274.544,8.871,99.882,-0.0045681
25.51,275.044,8.871,99.88,-0.0048494
25.56,275.544,8.871,99.878,-0.0045261
25.61,276.044,8.87,99.876,-0.0043763
25.66,276.544,8.87,99.874,-0.0041797
25.72,277.044,8.87,99.871,-0.0045413
25.77,277.544,8.87,99.869,-0.0045447
25.82,278.044,8.87,99.867,-0.0049145
25.87,278.544,8.869,99.865,-0.0037691
25.92,279.044,8.869,99.862,-0.0045972
25.97,279.545,8.869,99.86,-0.0049173
26.02,280.045,8.869,99.858,-0.0049578
26.07,280.545,8.869,99.855,-0.0040315
26.12,281.045,8.868,99.853,-0.0036253
26.17,281.545,8.868,99.851,-0.0052878
26.22,282.045,8.868,99.848,-0.0050157
26.27,282.545,8.868,99.845,-0.0041974
26.32,283.045,8.868,99.843,-0.0031927
26.37,283.545,8.867,99.841,-0.0049491
26.42,284.045,8.867,99.838,-0.0054944
26.47,284.545,8.867,99.836,-0.0055871
26.52,285.046,8.867,99.833,-0.0054277
26.57,285.546,8.866,99.83,-0.0055998
26.62,286.046,8.866,99.828,-0.0054599
26.68,286.546,8.866,99.825,-0.0060117
26.73,287.046,8.866,99.822,-0.0054411
26.78,287.546,8.865,99.819,-0.0054815
26.83,288.046,8.865,99.816,-0.0046018
26.88,288.546,8.865,99.814,-0.0046863
26.93,289.046,8.865,99.811,-0.0051600
26.97,289.546,8.864,99.808,-0.0056828
27.02,290.046,8.864,99.805,-0.0053683
27.07,290.547,8.864,99.803,-0.0055783
27.12,291.047,8.864,99.8,-0.0052680
27.17,291.547,8.863,99.797,-0.0057758
27.22,292.047,8.863,99.794,-0.0053687
27.27,292.547,8.863,99.791,-0.0068277
27.32,293.047,8.863,99.788,-0.0062443
27.37,293.547,8.862,99.785,-0.0061666
27.42,294.047,8.862,99.782,-0.0061837
27.47,294.547,8.862,99.779,-0.0062006
27.52,295.047,8.862,99.776,-0.0055658
27.57,295.547,8.861,99.774,-0.0056169
27.62,296.048,8.861,99.771,-0.0054309
27.67,296.548,8.861,99.768,-0.0062651
27.72,297.048,8.861,99.765,-0.0066231
27.77,297.548,8.86,99.762,-0.0063416
27.82,298.048,8.86,99.759,-0.0060670
27.87,298.548,8.86,99.756,-0.0056818
27.92,299.048,8.86,99.753,-0.0057604
27.97,299.548,8.859,99.75,-0.0058578
28.02,300.048,8.859,99.746,-0.0061705
28.08,300.548,8.859,99.743,-0.0063215
28.13,301.048,8.858,99.74,-0.0067142
28.19,301.548,8.858,99.737,-0.0053317
28.24,302.049,8.858,99.734,-0.0059062
28.29,302.549,8.858,99.731,-0.0052749
28.33,303.049,8.857,99.728,-0.0057823
28.38,303.549,8.857,99.725,-0.0055790
28.43,304.049,8.857,99.722,-0.0062807
28.47,304.549,8.857,99.719,-0.0061994
28.52,305.049,8.856,99.716,-0.0061841
28.57,305.549,8.856,99.713,-0.0064023
28.62,306.049,8.856,99.71,-0.0066732
28.67,306.549,8.855,99.706,-0.0059063
28.72,307.049,8.855,99.703,-0.0065671
28.77,307.55,8.855,99.7,-0.0058171
28.81,308.05,8.855,99.697,-0.0057026
28.86,308.55,8.854,99.694,-0.0050367
28.91,309.05,8.854,99.691,-0.0060449
28.96,309.55,8.854,99.688,-0.0059203
29,310.05,8.854,99.685,-0.0060856
29.05,310.55,8.853,99.682,-0.0062523
29.1,311.05,8.853,99.678,-0.0067886
29.16,311.55,8.853,99.675,-0.0066571
29.21,312.05,8.852,99.672,-0.0072097
29.26,312.55,8.852,99.668,-0.0071091
29.31,313.051,8.852,99.665,-0.0072607
29.36,313.551,8.851,99.662,-0.0062026
29.41,314.051,8.851,99.658,-0.0064627
29.47,314.551,8.851,99.655,-0.0066094
29.52,315.051,8.851,99.652,-0.0062134
29.57,315.551,8.85,99.649,-0.0061319
29.62,316.051,8.85,99.645,-0.0058636
29.66,316.551,8.85,99.642,-0.0058448
29.72,317.051,8.849,99.639,-0.0058877
29.77,317.551,8.849,99.636,-0.0061983
29.82,318.051,8.849,99.632,-0.0066685
29.87,318.552,8.849,99.629,-0.0069355
29.92,319.052,8.848,99.626,-0.0065402
29.97,319.552,8.848,99.622,-0.0061957
30.02,320.052,8.848,99.619,-0.0065484
30.07,320.552,8.847,99.615,-0.0063899
30.12,321.052,8.847,99.612,-0.0065421
30.17,321.552,8.847,99.609,-0.0060491
30.22,322.052,8.846,99.606,-0.0068426
30.27,322.552,8.846,99.602,-0.0067754
30.32,323.052,8.846,99.599,-0.0066070
30.37,323.552,8.846,99.596,-0.0069937
30.42,324.053,8.845,99.592,-0.0073595
30.47,324.553,8.845,99.589,-0.0067213
30.52,325.053,8.845,99.585,-0.0071688
30.57,325.553,8.844,99.582,-0.0070366
30.62,326.053,8.844,99.579,-0.0065277
30.67,326.553,8.844,99.575,-0.0070716
30.72,327.053,8.843,99.572,-0.0066818
30.77,327.553,8.843,99.568,-0.0066053
30.82,328.053,8.843,99.565,-0.0063436
30.87,328.553,8.843,99.561,-0.0065753
30.92,329.053,8.842,99.558,-0.0069672
30.97,329.553,8.842,99.554,-0.0067914
31.02,330.054,8.842,99.551,-0.0064525
31.07,330.554,8.841,99.548,-0.0067158
31.12,331.054,8.841,99.544,-0.0065142
31.17,331.554,8.841,99.54,-0.0060257
31.22,332.054,8.84,99.537,-0.0068182
31.27,332.554,8.84,99.534,-0.0070313
31.32,333.054,8.84,99.53,-0.0071854
31.36,333.554,8.839,99.527,-0.0068828
31.41,334.054,8.839,99.523,-0.0070893
31.46,334.554,8.839,99.52,-0.0068461
31.51,335.054,8.839,99.517,-0.0075614
31.57,335.555,8.838,99.513,-0.0075572
31.62,336.055,8.838,99.509,-0.0071916
31.67,336.555,8.838,99.506,-0.0075358
31.72,337.055,8.837,99.502,-0.0073714
31.77,337.555,8.837,99.498,-0.0070259
31.82,338.055,8.837,99.495,-0.0074142
31.87,338.555,8.836,99.492,-0.0065931
31.92,339.055,8.836,99.488,-0.0062721
31.97,339.555,8.836,99.485,-0.0066032
32.02,340.055,8.835,99.481,-0.0072095
32.07,340.555,8.835,99.478,-0.0072843
32.12,341.056,8.835,99.474,-0.0079168
32.17,341.556,8.834,99.47,-0.0071497
32.22,342.056,8.834,99.466,-0.0074811
32.27,342.556,8.834,99.463,-0.0069045
32.32,343.056,8.833,99.459,-0.0070133
32.37,343.556,8.833,99.455,-0.0068824
32.42,344.056,8.833,99.452,-0.0073503
32.47,344.556,8.832,99.448,-0.0072860
32.52,345.056,8.832,99.444,-0.0071584
32.57,345.556,8.832,99.441,-0.0069217
32.62,346.056,8.831,99.437,-0.0072753
32.67,346.557,8.831,99.433,-0.0076642
32.72,347.057,8.831,99.429,-0.0070811
32.77,347.557,8.83,99.425,-0.0075676
32.82,348.057,8.83,99.422,-0.0073529
32.87,348.557,8.83,99.418,-0.0075839
32.92,349.057,8.829,99.414,-0.0079323
32.97,349.557,8.829,99.411,-0.0071067
33.02,350.057,8.829,99.407,-0.0081526
33.07,350.557,8.828,99.403,-0.0091172
33.12,351.057,8.828,99.399,-0.0084093
33.18,351.557,8.828,99.394,-0.0089959
33.23,352.058,8.827,99.39,-0.0071884
33.27,352.558,8.827,99.387,-0.0078097
33.32,353.058,8.827,99.383,-0.0079535
33.37,353.558,8.826,99.379,-0.0078210
33.42,354.058,8.826,99.375,-0.0078140
33.47,354.558,8.826,99.371,-0.0077027
33.52,355.058,8.825,99.367,-0.0071777
33.57,355.558,8.825,99.364,-0.0070294
33.62,356.058,8.825,99.36,-0.0089219
33.67,356.558,8.824,99.356,-0.0078799
33.72,357.058,8.824,99.352,-0.0075488
33.77,357.558,8.824,99.348,-0.0086113
33.82,358.059,8.823,99.343,-0.0088230
33.87,358.559,8.823,99.339,-0.0085705
33.92,359.059,8.822,99.335,-0.0076759
33.97,359.559,8.822,99.331,-0.0083440
34.02,360.059,8.822,99.327,-0.0079113
34.07,360.559,8.821,99.323,-0.0075205
34.12,361.059,8.821,99.319,-0.0085845
34.16,361.559,8.821,99.315,-0.0079024
34.21,362.059,8.82,99.312,-0.0077970
34.26,362.559,8.82,99.307,-0.0085145
34.31,363.059,8.82,99.303,-0.0082320
34.36,363.56,8.819,99.299,-0.0081731
34.41,364.06,8.819,99.295,-0.0079504
34.46,364.56,8.819,99.291,-0.0080588
34.51,365.06,8.818,99.287,-0.0085509
34.56,365.56,8.818,99.283,-0.0083785
34.61,366.06,8.817,99.278,-0.0088459
34.66,366.56,8.817,99.274,-0.0086863
34.71,367.06,8.817,99.27,-0.0082413
34.76,367.56,8.816,99.266,-0.0083570
34.81,368.06,8.816,99.261,-0.0087380
34.87,368.56,8.816,99.257,-0.0074552
34.92,369.061,8.815,99.253,-0.0089319
34.96,369.561,8.815,99.249,-0.0085912
35.01,370.061,8.814,99.244,-0.0080214
35.06,370.561,8.814,99.24,-0.0089804
35.11,371.061,8.814,99.236,-0.0083230
35.16,371.561,8.813,99.232,-0.0090749
35.21,372.061,8.813,99.227,-0.0083835
35.27,372.561,8.812,99.223,-0.0084192
35.32,373.061,8.812,99.219,-0.0083213
35.37,373.561,8.812,99.214,-0.0085723
35.42,374.061,8.811,99.21,-0.0080018
35.46,374.562,8.811,99.206,-0.0081773
35.51,375.062,8.811,99.202,-0.0084475
35.56,375.562,8.81,99.198,-0.0081930
35.61,376.062,8.81,99.193,-0.0081371
35.66,376.562,8.809,99.189,-0.0088938
35.72,377.062,8.809,99.185,-0.0086030
35.77,377.562,8.809,99.18,-0.0089219
35.82,378.062,8.808,99.176,-0.0092662
35.87,378.562,8.808,99.171,-0.0086158
35.92,379.062,8.808,99.167,-0.0082586
35.97,379.562,8.807,99.163,-0.0081447
36.02,380.063,8.807,99.159,-0.0080793
36.07,380.563,8.806,99.154,-0.0080309
36.12,381.063,8.806,99.15,-0.0086269
36.17,381.563,8.806,99.146,-0.0083213
36.22,382.063,8.805,99.141,-0.0084593
36.27,382.563,8.805,99.137,-0.0081328
36.32,383.063,8.805,99.133,-0.0080212
36.37,383.563,8.804,99.129,-0.0088384
36.42,384.063,8.804,99.125,-0.0092130
36.47,384.563,8.803,99.12,-0.0088155
36.52,385.063,8.803,99.116,-0.0092189
36.57,385.563,8.803,99.111,-0.0078111
36.62,386.064,8.802,99.107,-0.0078855
36.67,386.564,8.802,99.103,-0.0091518
36.72,387.064,8.801,99.098,-0.0095317
36.77,387.564,8.801,99.094,-0.0093831
36.82,388.064,8.801,99.089,-0.0099042
36.87,388.564,8.8,99.084,-0.0097263
36.92,389.064,8.8,99.079,-0.0095541
36.97,389.564,8.799,99.074,-0.0086849
37.02,390.064,8.799,99.07,-0.0091905
37.07,390.564,8.798,99.066,-0.0096601
37.12,391.064,8.798,99.061,-0.0092557
37.17,391.565,8.798,99.056,-0.0088743
37.22,392.065,8.797,99.051,-0.0099033
37.27,392.565,8.797,99.047,-0.0098278
37.32,393.065,8.796,99.042,-0.0100095
37.37,393.565,8.796,99.037,-0.0098122
37.43,394.065,8.796,99.032,-0.0097420
37.48,394.565,8.795,99.027,-0.0096490
37.53,395.065,8.795,99.022,-0.0093440
37.58,395.565,8.794,99.017,-0.0099104
37.62,396.065,8.794,99.013,-0.0099368
37.67,396.565,8.793,99.008,-0.0094519
37.72,397.066,8.793,99.003,-0.0104785
37.78,397.566,8.792,98.998,-0.0105071
37.83,398.066,8.792,98.992,-0.0103029
37.88,398.566,8.792,98.987,-0.0105107
37.93,399.066,8.791,98.983,-0.0099556
37.98,399.566,8.791,98.978,-0.0095883
38.03,400.066,8.79,98.973,-0.0097839
38.08,400.566,8.79,98.968,-0.0087344
38.13,401.066,8.789,98.964,-0.0109083
38.17,401.566,8.789,98.958,-0.0106023
38.22,402.066,8.789,98.953,-0.0106944
38.27,402.567,8.788,98.948,-0.0108912
38.32,403.067,8.788,98.943,-0.0104772
38.37,403.567,8.787,98.938,-0.0105894
38.42,404.067,8.787,98.933,-0.0102563
38.47,404.567,8.786,98.927,-0.0098390
38.52,405.067,8.786,98.922,-0.0100956
38.57,405.567,8.785,98.917,-0.0106142
38.61,406.067,8.785,98.912,-0.0101370
38.66,406.567,8.784,98.907,-0.0104553
38.71,407.067,8.784,98.901,-0.0104967
38.76,407.567,8.783,98.896,-0.0112426
38.81,408.068,8.783,98.89,-0.0116943
38.86,408.568,8.782,98.885,-0.0115251
38.91,409.068,8.782,98.879,-0.0112514
38.96,409.568,8.781,98.873,-0.0114157
39.01,410.068,8.781,98.867,-0.0115651
39.06,410.568,8.78,98.862,-0.0117954
39.11,411.068,8.78,98.856,-0.0120915
39.16,411.568,8.779,98.85,-0.0115205
39.21,412.068,8.779,98.844,-0.0125350
39.27,412.568,8.778,98.838,-0.0122375
39.32,413.068,8.778,98.831,-0.0119888
39.37,413.568,8.777,98.825,-0.0128347
39.42,414.069,8.777,98.819,-0.0121703
39.47,414.569,8.776,98.813,-0.0130403
39.52,415.069,8.775,98.806,-0.0132929
39.57,415.569,8.775,98.799,-0.0132856
39.62,416.069,8.774,98.793,-0.0136290
39.67,416.569,8.774,98.786,-0.0134141
39.72,417.069,8.773,98.779,-0.0137553
39.77,417.569,8.772,98.773,-0.0135539
39.82,418.069,8.772,98.766,-0.0132680
39.87,418.569,8.771,98.759,-0.0144020
39.92,419.069,8.771,98.752,-0.0144258
39.97,419.57,8.77,98.744,-0.0143030
40.02,420.07,8.769,98.737,-0.0150653
40.07,420.57,8.769,98.73,-0.0147607
40.12,421.07,8.768,98.722,-0.0156104
40.18,421.57,8.767,98.714,-0.0158574
40.23,422.07,8.767,98.706,-0.0159263
40.28,422.57,8.766,98.698,-0.0158365
40.33,423.07,8.765,98.69,-0.0160963
40.38,423.57,8.764,98.682,-0.0164941
40.43,424.07,8.764,98.674,-0.0164112
40.48,424.57,8.763,98.665,-0.0168822
40.53,425.071,8.762,98.657,-0.0165323
40.58,425.571,8.761,98.648,-0.0171239
40.63,426.071,8.761,98.64,-0.0176840
40.68,426.571,8.76,98.63,-0.0178893
40.72,427.071,8.759,98.622,-0.0180389
40.77,427.571,8.758,98.612,-0.0195432
40.82,428.071,8.757,98.602,-0.0190455
40.87,428.571,8.756,98.592,-0.0194091
40.92,429.071,8.756,98.582,-0.0194440
40.97,429.571,8.755,98.573,-0.0206017
41.02,430.071,8.754,98.563,-0.0201658
41.07,430.572,8.753,98.552,-0.0210378
41.12,431.072,8.752,98.542,-0.0211056
41.17,431.572,8.751,98.531,-0.0213327
41.22,432.072,8.75,98.521,-0.0212419
41.27,432.572,8.749,98.51,-0.0215533
41.32,433.072,8.748,98.499,-0.0225286
41.37,433.572,8.747,98.487,-0.0227190
41.42,434.072,8.746,98.476,-0.0228854
41.47,434.572,8.745,98.464,-0.0243030
41.52,435.072,8.744,98.452,-0.0240040
41.57,435.572,8.743,98.439,-0.0244829
41.62,436.073,8.742,98.427,-0.0248996
41.67,436.573,8.741,98.414,-0.0254794
41.72,437.073,8.739,98.401,-0.0262318
41.77,437.573,8.738,98.388,-0.0259468
41.82,438.073,8.737,98.375,-0.0271057
41.87,438.573,8.736,98.361,-0.0274635
41.92,439.073,8.735,98.347,-0.0281176
41.97,439.573,8.733,98.333,-0.0278487
42.02,440.073,8.732,98.319,-0.0287691
42.07,440.573,8.731,98.304,-0.0297012
42.12,441.073,8.729,98.288,-0.0306309
42.17,441.573,8.728,98.273,-0.0319090
42.22,442.074,8.727,98.256,-0.0325114
42.27,442.574,8.725,98.241,-0.0331967
42.32,443.074,8.724,98.224,-0.0331967
42.37,443.574,8.722,98.206,-0.0341919
42.42,444.074,8.721,98.189,-0.0351131
42.47,444.574,8.719,98.171,-0.0364459
42.52,445.074,8.717,98.152,-0.0381185
42.57,445.574,8.716,98.133,-0.0393382
42.62,446.074,8.714,98.113,-0.0402960
42.67,446.574,8.712,98.092,-0.0412873
42.72,447.074,8.71,98.071,-0.0429729
42.76,447.575,8.708,98.05,-0.0437443
42.81,448.075,8.706,98.027,-0.0449774
42.86,448.575,8.704,98.004,-0.0462475
42.91,449.075,8.702,97.98,-0.0487682
42.96,449.575,8.7,97.955,-0.0508460
43.01,450.075,8.698,97.929,-0.0526559
43.06,450.575,8.695,97.903,-0.0540741
43.11,451.075,8.693,97.876,-0.0547104
43.16,451.575,8.69,97.848,-0.0565839
43.21,452.075,8.688,97.819,-0.0584600
43.26,452.575,8.685,97.789,-0.0599033
43.31,453.076,8.682,97.759,-0.0613713
43.36,453.576,8.68,97.728,-0.0634771
43.41,454.076,8.677,97.695,-0.0659679
43.46,454.576,8.674,97.662,-0.0683962
43.51,455.076,8.671,97.627,-0.0712263
43.56,455.576,8.668,97.591,-0.0745162
43.61,456.076,8.664,97.554,-0.0766544
43.66,456.576,8.661,97.515,-0.0788946
43.71,457.076,8.657,97.475,-0.0805531
43.76,457.576,8.654,97.433,-0.0839709
43.81,458.076,8.65,97.39,-0.0875114
43.86,458.577,8.646,97.346,-0.0900602
43.91,459.077,8.642,97.301,-0.0928779
43.96,459.577,8.638,97.254,-0.0970848
44.01,460.077,8.633,97.204,-0.1001380
44.06,460.577,8.629,97.153,-0.1041590
44.11,461.077,8.624,97.1,-0.1071820
44.16,461.577,8.619,97.043,-0.1140090
44.21,462.077,8.614,96.986,-0.1186100
44.26,462.577,8.609,96.927,-0.1230560
44.31,463.077,8.603,96.865,-0.1294500
44.36,463.577,8.597,96.8,-0.1396480
44.41,464.078,8.591,96.727,-0.1437410
44.46,464.578,8.584,96.65,-0.1653060
44.51,465.078,8.576,96.566,-0.1721840
44.56,465.578,8.568,96.476,-0.1796820
44.61,466.078,8.56,96.384,-0.1933750
44.66,466.578,8.552,96.286,-0.2033580
44.71,467.078,8.542,96.179,-0.2278600
44.77,467.578,8.532,96.07,-0.2195860
44.82,468.078,8.522,95.957,-0.2405930
44.87,468.578,8.512,95.84,-0.2420880
44.92,469.078,8.501,95.721,-0.2491830
44.97,469.578,8.49,95.594,-0.2564040
45.01,470.079,8.479,95.469,-0.2535920
45.06,470.579,8.468,95.343,-0.2448110
45.11,471.079,8.457,95.219,-0.2675510
45.16,471.579,8.444,95.078,-0.2816500
45.21,472.079,8.432,94.94,-0.2967170
45.26,472.579,8.419,94.79,-0.3040070
45.31,473.079,8.405,94.637,-0.3141800
45.36,473.579,8.39,94.471,-0.3473730
45.41,474.079,8.375,94.297,-0.3764620
45.46,474.579,8.358,94.106,-0.4191970
45.51,475.079,8.339,93.895,-0.4286780
45.56,475.58,8.321,93.694,-0.4003250
45.61,476.08,8.304,93.495,-0.4124510
45.66,476.58,8.285,93.286,-0.4467570
45.72,477.08,8.265,93.058,-0.4643460
45.77,477.58,8.243,92.814,-0.5047460
45.82,478.08,8.22,92.55,-0.5010410
45.87,478.58,8.199,92.317,-0.4480180
45.92,479.08,8.178,92.079,-0.4884950
45.97,479.58,8.155,91.82,-0.5373890
46.02,480.08,8.13,91.543,-0.5426390
46.07,480.58,8.107,91.284,-0.5354340
46.12,481.081,8.082,91,-0.5888270
46.17,481.581,8.055,90.69,-0.6263710
46.22,482.081,8.027,90.376,-0.6274820
46.27,482.581,7.997,90.036,-0.7003870
46.32,483.081,7.966,89.69,-0.7016620
46.37,483.581,7.932,89.315,-0.7856820
46.42,484.081,7.896,88.901,-0.8216760
46.47,484.581,7.859,88.486,-0.7901720
46.52,485.081,7.822,88.072,-0.8125140
46.57,485.581,7.784,87.641,-0.8983340
46.62,486.081,7.743,87.184,-0.9590890
46.67,486.582,7.702,86.715,-1.00157
46.72,487.082,7.658,86.225,-1.01726
46.77,487.582,7.613,85.717,-1.08948
46.82,488.082,7.563,85.15,-1.14222
46.87,488.582,7.512,84.576,-1.18468
46.92,489.082,7.46,83.991,-1.19714
46.97,489.582,7.406,83.387,-1.25647
47.02,490.082,7.351,82.768,-1.2457
47.07,490.582,7.295,82.138,-1.31647
47.12,491.082,7.235,81.464,-1.37707
47.17,491.582,7.173,80.762,-1.42052
47.22,492.083,7.11,80.06,-1.44144
47.27,492.583,7.046,79.332,-1.44767
47.32,493.083,6.979,78.583,-1.58452
47.36,493.583,6.91,77.804,-1.61705
47.41,494.083,6.836,76.971,-1.72314
47.46,494.583,6.762,76.133,-1.7248
47.51,495.083,6.683,75.25,-1.75464
47.56,495.583,6.601,74.32,-1.87912
47.61,496.083,6.514,73.342,-2.06497
47.66,496.583,6.424,72.328,-1.99826
47.71,497.083,6.333,71.307,-2.0676
47.76,497.583,6.239,70.248,-2.11484
47.81,498.084,6.15,69.245,-2.10546
47.86,498.584,6.052,68.137,-2.34649
47.91,499.084,5.943,66.912,-2.50324
47.96,499.584,5.834,65.683,-2.4328
48.01,500.084,5.72,64.403,-2.70383
48.06,500.584,5.596,63.012,-2.84689
48.11,501.084,5.467,61.556,-3.01331
48.16,501.584,5.326,59.963,-3.34435
48.21,502.084,5.186,58.395,-3.31458
48.26,502.584,5.035,56.695,-2.84421
48.31,503.084,4.912,55.301,-2.54721
48.36,503.585,4.796,54.003,-2.75324
48.41,504.085,4.671,52.59,-2.97925
48.46,504.585,4.54,51.12,-2.99175
48.51,505.085,4.406,49.607,-3.04764
48.57,505.585,4.265,48.022,-3.05483
48.62,506.085,4.137,46.575,-3.10758
48.67,506.585,3.999,45.03,-3.16266
48.72,507.085,3.861,43.475,-3.17321
48.77,507.585,3.718,41.868,-3.30979
48.82,508.085,3.573,40.229,-3.28014
48.87,508.585,3.422,38.527,-3.37128
48.92,509.086,3.275,36.872,-3.35192
48.97,509.586,3.124,35.176,-3.43495
49.02,510.086,2.972,33.463,-3.43986
49.07,510.586,2.813,31.677,-3.60289
49.12,511.086,2.651,29.843,-3.63916
49.17,511.586,2.484,27.963,-3.72167
49.22,512.086,2.32,26.122,-3.16875
49.27,512.586,2.195,24.715,-3.02515
49.32,513.086,2.058,23.17,-3.19562
49.37,513.586,1.917,21.588,-3.2466
49.42,514.086,1.776,20,-3.20226
49.47,514.587,1.634,18.393,-3.12504
49.52,515.087,1.495,16.829,-3.16274
49.58,515.587,1.356,15.268,-3.21885
49.63,516.087,1.222,13.755,-2.79754
49.68,516.587,1.101,12.398,-2.59892
49.73,517.087,0.9880000,11.128,-2.46737
49.77,517.587,0.8840000,9.958,-2.25624
49.82,518.087,0.7830000,8.811,-2.16075
49.87,518.587,0.6880000,7.745,-2.06859
49.92,519.087,0.6020000,6.776,-1.9047
49.97,519.587,0.5200000,5.855,-1.74964
50.02,520.088,0.4470000,5.031,-1.53657
50.07,520.588,0.3820000,4.304,-1.34064
50.12,521.088,0.3270000,3.681,-1.09947
50.17,521.588,0.2800000,3.148,-1.00593
50.22,522.088,0.2400000,2.703,-0.8278950
50.27,522.588,0.2070000,2.335,-0.6676080
50.32,523.088,0.1810000,2.036,-0.5436280
50.37,523.588,0.1600000,1.796,-0.4275630
50.42,524.088,0.1430000,1.608,-0.3192750
50.47,524.588,0.1300000,1.465,-0.2309220
50.52,525.088,0.1210000,1.362,-0.1731820
50.57,525.588,0.1150000,1.29,-0.1160830
50.62,526.089,0.1110000,1.245,-0.0755436
50.67,526.589,0.1070000,1.21,-0.0712566
50.72,527.089,0.1040000,1.175,-0.0689606
50.77,527.589,0.1010000,1.142,-0.0615433
50.82,528.089,0.0990000,1.113,-0.0527676
50.87,528.589,0.0970000,1.09,-0.0440497
50.92,529.089,0.0950000,1.069,-0.0355845
50.97,529.589,0.0940000,1.054,-0.0283888
51.02,530.089,0.0920000,1.041,-0.0226444
51.07,530.589,0.0920000,1.031,-0.0181834
51.12,531.089,0.0910000,1.024,-0.0134824
51.17,531.59,0.0900000,1.017,-0.0115067
51.22,532.09,0.0900000,1.012,-0.0083758
51.27,532.59,0.0900000,1.008,-0.0066566
51.32,533.09,0.0890000,1.005,-0.0049983
51.37,533.59,0.0890000,1.003,-0.0045710
51.42,534.09,0.0890000,1,-0.0041866
51.47,534.59,0.0890000,0.9990000,-0.0034272
51.52,535.09,0.0890000,0.9970000,-0.0028213
51.57,535.59,0.0880000,0.9960000,-0.0019920
51.62,536.09,0.0880000,0.9950000,-0.0018951
51.67,536.59,0.0880000,0.9940000,-0.0017808
51.72,537.091,0.0880000,0.9940000,-0.0013922
51.77,537.591,0.0880000,0.9930000,-0.0007942
51.82,538.091,0.0880000,0.9930000,-0.0005199
51.88,538.591,0.0880000,0.9930000,-0.0004079
51.93,539.091,0.0880000,0.9930000,-0.0001573
51.97,539.591,0.0880000,0.9930000,0.0000500
52.02,540.091,0.0880000,0.9930000,-0.0005657
52.07,540.591,0.0880000,0.9920000,-0.0004833
52.12,541.091,0.0880000,0.9920000,-0.0003206
52.16,541.591,0.0880000,0.9920000,-0.0003850
52.21,542.091,0.0880000,0.9920000,-0.0002693
52.26,542.592,0.0880000,0.9920000,0.0006824
52.31,543.092,0.0880000,0.9920000,-0.0000028
52.36,543.592,0.0880000,0.9920000,0.0002176
52.41,544.092,0.0880000,0.9920000,-0.0000989
52.46,544.592,0.0880000,0.9920000,0.0001631
52.51,545.092,0.0880000,0.9920000,-0.0006753
52.56,545.592,0.0880000,0.9920000,-0.0002702
52.61,546.092,0.0880000,0.9920000,-0.0001119
52.66,546.592,0.0880000,0.9920000,0.0000743
52.72,547.092,0.0880000,0.9920000,0.0000685
52.77,547.592,0.0880000,0.9920000,0.0004616
52.82,548.093,0.0880000,0.9920000,0.0000124
52.87,548.593,0.0880000,0.9920000,0.0003235
52.92,549.093,0.0880000,0.9920000,-0.0004239
52.97,549.593,0.0880000,0.9920000,-0.0000628
53.02,550.093,0.0880000,0.9920000,-0.0007568
53.07,550.593,0.0880000,0.9920000,-0.0001473
53.12,551.093,0.0880000,0.9920000,0.0000201
53.17,551.593,0.0880000,0.9920000,0.0009440
53.22,552.093,0.0880000,0.9920000,0.0000566
53.27,552.593,0.0880000,0.9920000,-0.0000741
53.32,553.093,0.0880000,0.9920000,-0.0002729
53.37,553.593,0.0880000,0.9920000,-0.0001506
53.42,554.094,0.0880000,0.9920000,-0.0002768
53.47,554.594,0.0880000,0.9920000,-0.0006521
53.52,555.094,0.0880000,0.9920000,0.0007371
53.57,555.594,0.0880000,0.9930000,0.0002209
53.62,556.094,0.0880000,0.9930000,-0.0008514
53.67,556.594,0.0880000,0.9930000,-0.0003558
53.72,557.094,0.0880000,0.9920000,-0.0008390
53.77,557.594,0.0880000,0.9920000,-0.0004376
53.82,558.094,0.0880000,0.9920000,-0.0006255
53.87,558.594,0.0880000,0.9920000,0.0005120
53.92,559.094,0.0880000,0.9920000,-0.0000429
53.97,559.595,0.0880000,0.9920000,-0.0004232
54.02,560.095,0.0880000,0.9920000,-0.0008326
54.07,560.595,0.0880000,0.9920000,-0.0001005
54.12,561.095,0.0880000,0.9920000,0.0000492
54.17,561.595,0.0880000,0.9920000,0.0001310
54.22,562.095,0.0880000,0.9920000,0.0006114
54.27,562.595,0.0880000,0.9920000,0.0004512
54.32,563.095,0.0880000,0.9920000,-0.0005630
54.36,563.595,0.0880000,0.9920000,-0.0000665
54.41,564.095,0.0880000,0.9920000,-0.0004586
54.46,564.595,0.0880000,0.9920000,-0.0005404
54.51,565.096,0.0880000,0.9920000,-0.0005514
54.56,565.596,0.0880000,0.9910000,0.0000716
54.62,566.096,0.0880000,0.9910000,-0.0004807
54.67,566.596,0.0880000,0.9910000,0.0001512
54.72,567.096,0.0880000,0.9920000,0.0004270
54.77,567.596,0.0880000,0.9920000,-0.0001697
54.82,568.096,0.0880000,0.9920000,-0.0004286
54.87,568.596,0.0880000,0.9920000,-0.0005718
54.92,569.096,0.0880000,0.9910000,0.0001880
54.97,569.596,0.0880000,0.9910000,0.0000369
55.02,570.096,0.0880000,0.9910000,-0.0001855
55.07,570.597,0.0880000,0.9910000,0.0001547
55.12,571.097,0.0880000,0.9910000,0.0002748
55.17,571.597,0.0880000,0.9910000,-0.0000879
55.22,572.097,0.0880000,0.9910000,0.0002752
55.27,572.597,0.0880000,0.9910000,0.0001454
55.32,573.097,0.0880000,0.9910000,0.0004941
55.37,573.597,0.0880000,0.9910000,0.0007556
55.42,574.097,0.0880000,0.9910000,0.0003595
55.47,574.597,0.0880000,0.9910000,-0.0002364
55.52,575.097,0.0880000,0.9910000,-0.0002754
55.57,575.597,0.0880000,0.9910000,-0.0002115
55.62,576.098,0.0880000,0.9910000,-0.0004865
55.67,576.598,0.0880000,0.9910000,-0.0002883
55.72,577.098,0.0880000,0.9910000,-0.0003167
55.78,577.598,0.0880000,0.9910000,-0.0006575
55.83,578.098,0.0880000,0.9910000,0.0004463
55.88,578.598,0.0880000,0.9910000,-0.0003688
55.93,579.098,0.0880000,0.9910000,-0.0001596
55.97,579.598,0.0880000,0.9910000,-0.0004311
56.02,580.098,0.0880000,0.9910000,0.0000433
56.07,580.598,0.0880000,0.9910000,0.0002831
56.12,581.098,0.0880000,0.9910000,0.0004154
56.17,581.598,0.0880000,0.9910000,-0.0001497
56.22,582.099,0.0880000,0.9910000,0.0002670
56.27,582.599,0.0880000,0.9910000,0.0000082
56.32,583.099,0.0880000,0.9910000,-0.0002160
56.37,583.599,0.0880000,0.9910000,-0.0001068
56.42,584.099,0.0880000,0.9910000,-0.0002568
56.47,584.599,0.0880000,0.9910000,-0.0004616
56.52,585.099,0.0880000,0.9910000,0.0002891
56.57,585.599,0.0880000,0.9910000,0.0001986
56.62,586.099,0.0880000,0.9910000,0.0000676
56.66,586.599,0.0880000,0.9910000,0.0005834
56.71,587.099,0.0880000,0.9910000,-0.0001535
56.76,587.6,0.0880000,0.9910000,-0.0003474
56.82,588.1,0.0880000,0.9910000,-0.0003099
56.87,588.6,0.0880000,0.9910000,-0.0002833
56.92,589.1,0.0880000,0.9910000,-0.0002824
56.97,589.6,0.0880000,0.9910000,-0.0003986
57.01,590,0.0880000,0.9910000,-0.0002764