File: R/rHDPE_App/app/www/Output/TGA/Condensed_Data/Resin8_1_.csv
1.21,30,15.55,100.037
1.26,30.4001,15.55,100.037
1.3,30.8001,15.55,100.038
1.35,31.2002,15.55,100.039
1.39,31.6003,15.55,100.04
1.44,32.0004,15.551,100.04
1.48,32.4004,15.551,100.041
1.53,32.8005,15.551,100.042
1.57,33.2006,15.551,100.042
1.61,33.6006,15.551,100.043
1.66,34.0007,15.551,100.044
1.7,34.4008,15.551,100.044
1.74,34.8009,15.551,100.045
1.78,35.2009,15.551,100.045
1.83,35.601,15.551,100.046
1.87,36.0011,15.551,100.046
1.91,36.4011,15.552,100.047
1.95,36.8012,15.552,100.047
2,37.2013,15.552,100.047
2.04,37.6014,15.552,100.048
2.08,38.0014,15.552,100.048
2.12,38.4015,15.552,100.049
2.16,38.8016,15.552,100.049
2.21,39.2016,15.552,100.049
2.25,39.6017,15.552,100.05
2.29,40.0018,15.552,100.05
2.33,40.4019,15.552,100.051
2.37,40.8019,15.552,100.051
2.41,41.202,15.552,100.051
2.46,41.6021,15.552,100.052
2.5,42.0021,15.552,100.052
2.54,42.4022,15.552,100.053
2.58,42.8023,15.553,100.053
2.62,43.2024,15.553,100.053
2.66,43.6024,15.553,100.054
2.71,44.0025,15.553,100.054
2.75,44.4026,15.553,100.055
2.79,44.8026,15.553,100.055
2.83,45.2027,15.553,100.055
2.87,45.6028,15.553,100.056
2.91,46.0029,15.553,100.056
2.95,46.4029,15.553,100.056
2.99,46.803,15.553,100.057
3.04,47.2031,15.553,100.057
3.08,47.6031,15.553,100.058
3.12,48.0032,15.553,100.058
3.16,48.4033,15.553,100.059
3.2,48.8034,15.553,100.059
3.24,49.2034,15.554,100.059
3.28,49.6035,15.554,100.06
3.32,50.0036,15.554,100.06
3.36,50.4036,15.554,100.06
3.4,50.8037,15.554,100.061
3.44,51.2038,15.554,100.061
3.48,51.6039,15.554,100.062
3.53,52.0039,15.554,100.062
3.56,52.404,15.554,100.063
3.61,52.8041,15.554,100.063
3.65,53.2041,15.554,100.063
3.69,53.6042,15.554,100.064
3.73,54.0043,15.554,100.064
3.77,54.4044,15.554,100.065
3.81,54.8044,15.554,100.065
3.85,55.2045,15.554,100.065
3.89,55.6046,15.555,100.066
3.93,56.0046,15.555,100.066
3.97,56.4047,15.555,100.067
4.01,56.8048,15.555,100.067
4.05,57.2049,15.555,100.067
4.09,57.6049,15.555,100.068
4.13,58.005,15.555,100.068
4.17,58.4051,15.555,100.069
4.21,58.8051,15.555,100.069
4.26,59.2052,15.555,100.07
4.3,59.6053,15.555,100.07
4.34,60.0054,15.555,100.07
4.38,60.4054,15.555,100.071
4.42,60.8055,15.555,100.071
4.46,61.2056,15.555,100.072
4.5,61.6056,15.555,100.072
4.54,62.0057,15.556,100.072
4.58,62.4058,15.556,100.073
4.62,62.8059,15.556,100.073
4.66,63.2059,15.556,100.073
4.7,63.606,15.556,100.074
4.74,64.0061,15.556,100.074
4.78,64.4061,15.556,100.074
4.82,64.8062,15.556,100.075
4.86,65.2063,15.556,100.075
4.9,65.6064,15.556,100.076
4.94,66.0064,15.556,100.076
4.98,66.4065,15.556,100.077
5.02,66.8066,15.556,100.077
5.06,67.2066,15.556,100.077
5.1,67.6067,15.556,100.078
5.14,68.0068,15.556,100.078
5.18,68.4069,15.556,100.078
5.22,68.8069,15.557,100.079
5.26,69.207,15.557,100.079
5.3,69.6071,15.557,100.079
5.34,70.0071,15.557,100.08
5.38,70.4072,15.557,100.08
5.42,70.8073,15.557,100.08
5.46,71.2074,15.557,100.08
5.5,71.6074,15.557,100.081
5.54,72.0075,15.557,100.081
5.58,72.4076,15.557,100.081
5.62,72.8076,15.557,100.082
5.66,73.2077,15.557,100.082
5.7,73.6078,15.557,100.082
5.74,74.0079,15.557,100.083
5.78,74.4079,15.557,100.083
5.82,74.808,15.557,100.083
5.86,75.2081,15.557,100.083
5.9,75.6081,15.557,100.084
5.94,76.0082,15.557,100.084
5.99,76.4083,15.557,100.084
6.03,76.8084,15.557,100.085
6.06,77.2084,15.558,100.085
6.1,77.6085,15.558,100.085
6.15,78.0086,15.558,100.086
6.19,78.4086,15.558,100.086
6.23,78.8087,15.558,100.086
6.26,79.2088,15.558,100.086
6.3,79.6089,15.558,100.087
6.35,80.0089,15.558,100.087
6.39,80.409,15.558,100.087
6.43,80.8091,15.558,100.088
6.46,81.2091,15.558,100.088
6.5,81.6092,15.558,100.088
6.55,82.0093,15.558,100.088
6.59,82.4094,15.558,100.088
6.63,82.8094,15.558,100.089
6.66,83.2095,15.558,100.089
6.7,83.6096,15.558,100.089
6.75,84.0096,15.558,100.089
6.79,84.4097,15.558,100.089
6.83,84.8098,15.558,100.09
6.86,85.2099,15.558,100.09
6.9,85.6099,15.558,100.09
6.95,86.01,15.558,100.09
6.99,86.4101,15.558,100.091
7.03,86.8101,15.558,100.091
7.07,87.2102,15.558,100.091
7.11,87.6103,15.558,100.091
7.15,88.0104,15.558,100.091
7.19,88.4104,15.559,100.092
7.23,88.8105,15.559,100.092
7.27,89.2106,15.559,100.092
7.31,89.6106,15.559,100.092
7.35,90.0107,15.559,100.093
7.39,90.4108,15.559,100.093
7.43,90.8109,15.559,100.093
7.47,91.2109,15.559,100.093
7.51,91.611,15.559,100.093
7.55,92.0111,15.559,100.094
7.59,92.4111,15.559,100.094
7.63,92.8112,15.559,100.094
7.67,93.2113,15.559,100.094
7.71,93.6114,15.559,100.094
7.75,94.0114,15.559,100.095
7.79,94.4115,15.559,100.095
7.83,94.8116,15.559,100.095
7.87,95.2116,15.559,100.095
7.91,95.6117,15.559,100.095
7.95,96.0118,15.559,100.095
7.99,96.4119,15.559,100.095
8.03,96.8119,15.559,100.095
8.07,97.212,15.559,100.095
8.11,97.6121,15.559,100.095
8.15,98.0121,15.559,100.095
8.19,98.4122,15.559,100.095
8.23,98.8123,15.559,100.096
8.27,99.2124,15.559,100.096
8.31,99.6124,15.559,100.096
8.35,100.013,15.559,100.096
8.39,100.413,15.559,100.096
8.43,100.813,15.559,100.096
8.47,101.213,15.559,100.096
8.51,101.613,15.559,100.096
8.55,102.013,15.559,100.096
8.59,102.413,15.559,100.097
8.63,102.813,15.559,100.097
8.67,103.213,15.559,100.097
8.71,103.613,15.559,100.097
8.75,104.013,15.559,100.097
8.79,104.413,15.559,100.097
8.83,104.813,15.559,100.098
8.87,105.213,15.559,100.098
8.91,105.614,15.559,100.098
8.95,106.014,15.559,100.098
8.99,106.414,15.559,100.098
9.03,106.814,15.559,100.098
9.07,107.214,15.559,100.098
9.11,107.614,15.559,100.098
9.15,108.014,15.559,100.098
9.19,108.414,15.56,100.098
9.23,108.814,15.56,100.098
9.27,109.214,15.56,100.098
9.31,109.614,15.56,100.098
9.35,110.014,15.56,100.098
9.39,110.414,15.56,100.098
9.43,110.814,15.56,100.098
9.47,111.215,15.56,100.098
9.51,111.615,15.56,100.098
9.55,112.015,15.56,100.098
9.59,112.415,15.56,100.098
9.63,112.815,15.56,100.098
9.67,113.215,15.56,100.098
9.71,113.615,15.56,100.098
9.75,114.015,15.56,100.098
9.79,114.415,15.56,100.098
9.83,114.815,15.56,100.098
9.87,115.215,15.56,100.098
9.91,115.615,15.56,100.098
9.95,116.015,15.56,100.098
9.99,116.415,15.56,100.098
10.03,116.816,15.56,100.098
10.07,117.216,15.56,100.098
10.11,117.616,15.56,100.098
10.15,118.016,15.56,100.098
10.19,118.416,15.56,100.098
10.23,118.816,15.56,100.098
10.27,119.216,15.56,100.098
10.31,119.616,15.56,100.098
10.35,120.016,15.56,100.098
10.39,120.416,15.56,100.098
10.43,120.816,15.56,100.098
10.47,121.216,15.56,100.098
10.51,121.616,15.56,100.098
10.55,122.016,15.56,100.098
10.59,122.417,15.56,100.098
10.63,122.817,15.56,100.098
10.67,123.217,15.559,100.098
10.71,123.617,15.559,100.098
10.75,124.017,15.559,100.098
10.79,124.417,15.559,100.098
10.83,124.817,15.559,100.098
10.87,125.217,15.559,100.097
10.91,125.617,15.559,100.097
10.95,126.017,15.559,100.097
10.99,126.417,15.559,100.097
11.03,126.817,15.559,100.097
11.07,127.217,15.559,100.097
11.11,127.617,15.559,100.097
11.15,128.018,15.559,100.097
11.19,128.418,15.559,100.097
11.23,128.818,15.559,100.097
11.27,129.218,15.559,100.097
11.31,129.618,15.559,100.096
11.35,130.018,15.559,100.096
11.39,130.418,15.559,100.096
11.43,130.818,15.559,100.096
11.47,131.218,15.559,100.096
11.51,131.618,15.559,100.096
11.55,132.018,15.559,100.096
11.59,132.418,15.559,100.096
11.63,132.818,15.559,100.096
11.67,133.218,15.559,100.095
11.71,133.619,15.559,100.095
11.75,134.019,15.559,100.095
11.79,134.419,15.559,100.095
11.83,134.819,15.559,100.095
11.87,135.219,15.559,100.095
11.91,135.619,15.559,100.095
11.95,136.019,15.559,100.095
11.99,136.419,15.559,100.095
12.03,136.819,15.559,100.094
12.07,137.219,15.559,100.094
12.11,137.619,15.559,100.094
12.15,138.019,15.559,100.094
12.19,138.419,15.559,100.094
12.23,138.819,15.559,100.093
12.27,139.22,15.559,100.093
12.31,139.62,15.559,100.093
12.35,140.02,15.559,100.093
12.39,140.42,15.559,100.093
12.43,140.82,15.559,100.093
12.47,141.22,15.559,100.093
12.51,141.62,15.559,100.092
12.55,142.02,15.559,100.092
12.59,142.42,15.559,100.092
12.63,142.82,15.559,100.092
12.67,143.22,15.559,100.092
12.71,143.62,15.559,100.092
12.75,144.02,15.559,100.092
12.79,144.42,15.558,100.091
12.83,144.821,15.558,100.091
12.87,145.221,15.558,100.091
12.91,145.621,15.558,100.091
12.95,146.021,15.558,100.091
12.99,146.421,15.558,100.091
13.03,146.821,15.558,100.09
13.07,147.221,15.558,100.09
13.11,147.621,15.558,100.09
13.15,148.021,15.558,100.09
13.19,148.421,15.558,100.09
13.23,148.821,15.558,100.09
13.27,149.221,15.558,100.09
13.31,149.621,15.558,100.089
13.35,150.021,15.558,100.089
13.39,150.422,15.558,100.089
13.43,150.822,15.558,100.088
13.47,151.222,15.558,100.088
13.51,151.622,15.558,100.088
13.55,152.022,15.558,100.087
13.59,152.422,15.558,100.087
13.63,152.822,15.558,100.087
13.67,153.222,15.558,100.086
13.71,153.622,15.558,100.086
13.75,154.022,15.558,100.085
13.79,154.422,15.557,100.085
13.83,154.822,15.557,100.084
13.87,155.222,15.557,100.083
13.91,155.622,15.557,100.082
13.95,156.023,15.557,100.082
13.99,156.423,15.557,100.081
14.03,156.823,15.557,100.08
14.07,157.223,15.557,100.079
14.11,157.623,15.556,100.078
14.15,158.023,15.556,100.077
14.19,158.423,15.556,100.076
14.23,158.823,15.556,100.075
14.27,159.223,15.556,100.074
14.31,159.623,15.556,100.073
14.35,160.023,15.556,100.072
14.39,160.423,15.555,100.072
14.43,160.823,15.555,100.071
14.47,161.223,15.555,100.07
14.51,161.624,15.555,100.069
14.55,162.024,15.555,100.068
14.59,162.424,15.555,100.068
14.63,162.824,15.555,100.067
14.67,163.224,15.555,100.066
14.71,163.624,15.554,100.066
14.75,164.024,15.554,100.065
14.79,164.424,15.554,100.064
14.83,164.824,15.554,100.064
14.87,165.224,15.554,100.063
14.91,165.624,15.554,100.063
14.95,166.024,15.554,100.062
14.99,166.424,15.554,100.062
15.03,166.824,15.554,100.062
15.07,167.225,15.554,100.062
15.11,167.625,15.554,100.061
15.15,168.025,15.554,100.06
15.19,168.425,15.554,100.06
15.23,168.825,15.554,100.059
15.27,169.225,15.553,100.059
15.31,169.625,15.553,100.059
15.35,170.025,15.553,100.058
15.39,170.425,15.553,100.058
15.43,170.825,15.553,100.058
15.47,171.225,15.553,100.057
15.51,171.625,15.553,100.057
15.55,172.025,15.553,100.056
15.59,172.425,15.553,100.056
15.63,172.826,15.553,100.056
15.67,173.226,15.553,100.055
15.71,173.626,15.553,100.055
15.75,174.026,15.553,100.055
15.79,174.426,15.553,100.054
15.83,174.826,15.553,100.054
15.87,175.226,15.553,100.053
15.91,175.626,15.553,100.053
15.95,176.026,15.552,100.053
15.99,176.426,15.552,100.052
16.03,176.826,15.552,100.052
16.07,177.226,15.552,100.052
16.11,177.626,15.552,100.051
16.15,178.026,15.552,100.051
16.19,178.427,15.552,100.05
16.23,178.827,15.552,100.05
16.27,179.227,15.552,100.05
16.31,179.627,15.552,100.049
16.35,180.027,15.552,100.049
16.39,180.427,15.552,100.049
16.43,180.827,15.552,100.048
16.47,181.227,15.552,100.048
16.51,181.627,15.552,100.048
16.55,182.027,15.552,100.048
16.59,182.427,15.552,100.047
16.63,182.827,15.552,100.047
16.67,183.227,15.552,100.047
16.71,183.627,15.551,100.046
16.75,184.028,15.551,100.046
16.79,184.428,15.551,100.045
16.83,184.828,15.551,100.045
16.87,185.228,15.551,100.045
16.91,185.628,15.551,100.044
16.95,186.028,15.551,100.044
16.99,186.428,15.551,100.043
17.03,186.828,15.551,100.043
17.07,187.228,15.551,100.042
17.11,187.628,15.551,100.042
17.15,188.028,15.551,100.042
17.19,188.428,15.551,100.041
17.23,188.828,15.551,100.041
17.27,189.228,15.551,100.041
17.31,189.629,15.551,100.04
17.35,190.029,15.551,100.04
17.39,190.429,15.55,100.039
17.43,190.829,15.55,100.039
17.47,191.229,15.55,100.039
17.51,191.629,15.55,100.038
17.55,192.029,15.55,100.038
17.59,192.429,15.55,100.037
17.63,192.829,15.55,100.037
17.67,193.229,15.55,100.036
17.71,193.629,15.55,100.036
17.75,194.029,15.55,100.036
17.79,194.429,15.55,100.035
17.83,194.829,15.55,100.035
17.87,195.23,15.55,100.034
17.91,195.63,15.55,100.034
17.95,196.03,15.549,100.033
17.99,196.43,15.549,100.033
18.03,196.83,15.549,100.032
18.08,197.23,15.549,100.032
18.12,197.63,15.549,100.031
18.16,198.03,15.549,100.031
18.2,198.43,15.549,100.03
18.24,198.83,15.549,100.03
18.28,199.23,15.549,100.03
18.32,199.63,15.549,100.029
18.36,200.03,15.549,100.029
18.4,200.43,15.549,100.028
18.44,200.831,15.549,100.028
18.48,201.231,15.549,100.027
18.52,201.631,15.548,100.027
18.56,202.031,15.548,100.026
18.6,202.431,15.548,100.026
18.64,202.831,15.548,100.025
18.68,203.231,15.548,100.025
18.72,203.631,15.548,100.024
18.76,204.031,15.548,100.024
18.8,204.431,15.548,100.023
18.84,204.831,15.548,100.023
18.88,205.231,15.548,100.022
18.92,205.631,15.548,100.021
18.96,206.031,15.548,100.021
19,206.432,15.547,100.02
19.04,206.832,15.547,100.02
19.08,207.232,15.547,100.019
19.12,207.632,15.547,100.019
19.16,208.032,15.547,100.018
19.2,208.432,15.547,100.018
19.24,208.832,15.547,100.017
19.28,209.232,15.547,100.017
19.32,209.632,15.547,100.016
19.36,210.032,15.547,100.016
19.4,210.432,15.547,100.015
19.45,210.832,15.547,100.014
19.49,211.232,15.546,100.014
19.53,211.632,15.546,100.013
19.57,212.033,15.546,100.013
19.61,212.433,15.546,100.012
19.65,212.833,15.546,100.012
19.69,213.233,15.546,100.011
19.73,213.633,15.546,100.011
19.77,214.033,15.546,100.01
19.81,214.433,15.546,100.009
19.85,214.833,15.546,100.009
19.89,215.233,15.546,100.008
19.93,215.633,15.545,100.008
19.97,216.033,15.545,100.007
20.01,216.433,15.545,100.006
20.05,216.833,15.545,100.006
20.09,217.233,15.545,100.005
20.13,217.634,15.545,100.004
20.17,218.034,15.545,100.003
20.21,218.434,15.545,100.003
20.25,218.834,15.545,100.002
20.29,219.234,15.545,100.001
20.33,219.634,15.544,100.001
20.37,220.034,15.544,100
20.41,220.434,15.544,100
20.45,220.834,15.544,99.999
20.49,221.234,15.544,99.999
20.53,221.634,15.544,99.998
20.57,222.034,15.544,99.997
20.61,222.434,15.544,99.996
20.64,222.834,15.544,99.996
20.68,223.235,15.544,99.995
20.73,223.635,15.543,99.994
20.77,224.035,15.543,99.994
20.81,224.435,15.543,99.993
20.85,224.835,15.543,99.992
20.89,225.235,15.543,99.992
20.93,225.635,15.543,99.991
20.97,226.035,15.543,99.99
21.01,226.435,15.543,99.989
21.04,226.835,15.543,99.989
21.09,227.235,15.542,99.988
21.13,227.635,15.542,99.987
21.17,228.035,15.542,99.986
21.21,228.435,15.542,99.986
21.25,228.836,15.542,99.985
21.29,229.236,15.542,99.984
21.33,229.636,15.542,99.983
21.37,230.036,15.542,99.983
21.41,230.436,15.541,99.982
21.44,230.836,15.541,99.981
21.48,231.236,15.541,99.98
21.53,231.636,15.541,99.98
21.56,232.036,15.541,99.979
21.6,232.436,15.541,99.978
21.64,232.836,15.541,99.977
21.68,233.236,15.541,99.977
21.72,233.636,15.541,99.976
21.76,234.036,15.54,99.975
21.8,234.437,15.54,99.974
21.84,234.837,15.54,99.973
21.88,235.237,15.54,99.973
21.92,235.637,15.54,99.972
21.96,236.037,15.54,99.971
22,236.437,15.54,99.97
22.04,236.837,15.54,99.97
22.08,237.237,15.539,99.969
22.12,237.637,15.539,99.968
22.16,238.037,15.539,99.967
22.2,238.437,15.539,99.966
22.24,238.837,15.539,99.965
22.28,239.237,15.539,99.965
22.32,239.637,15.539,99.964
22.36,240.038,15.539,99.963
22.4,240.438,15.538,99.962
22.44,240.838,15.538,99.961
22.48,241.238,15.538,99.96
22.52,241.638,15.538,99.96
22.56,242.038,15.538,99.959
22.6,242.438,15.538,99.958
22.64,242.838,15.538,99.957
22.68,243.238,15.537,99.956
22.72,243.638,15.537,99.955
22.76,244.038,15.537,99.955
22.8,244.438,15.537,99.954
22.84,244.838,15.537,99.953
22.88,245.238,15.537,99.952
22.92,245.639,15.537,99.951
22.96,246.039,15.537,99.95
23,246.439,15.536,99.95
23.04,246.839,15.536,99.949
23.08,247.239,15.536,99.948
23.12,247.639,15.536,99.947
23.16,248.039,15.536,99.946
23.2,248.439,15.536,99.945
23.24,248.839,15.536,99.944
23.28,249.239,15.536,99.944
23.32,249.639,15.535,99.943
23.36,250.039,15.535,99.942
23.41,250.439,15.535,99.941
23.44,250.839,15.535,99.94
23.49,251.24,15.535,99.939
23.53,251.64,15.535,99.939
23.57,252.04,15.535,99.938
23.61,252.44,15.534,99.937
23.65,252.84,15.534,99.936
23.69,253.24,15.534,99.935
23.73,253.64,15.534,99.934
23.78,254.04,15.534,99.933
23.82,254.44,15.534,99.933
23.85,254.84,15.534,99.932
23.89,255.24,15.534,99.931
23.93,255.64,15.533,99.93
23.97,256.04,15.533,99.929
24.01,256.44,15.533,99.928
24.04,256.841,15.533,99.928
24.08,257.241,15.533,99.927
24.12,257.641,15.533,99.926
24.16,258.041,15.533,99.925
24.2,258.441,15.532,99.924
24.24,258.841,15.532,99.923
24.28,259.241,15.532,99.922
24.32,259.641,15.532,99.921
24.36,260.041,15.532,99.92
24.4,260.441,15.532,99.919
24.44,260.841,15.532,99.918
24.48,261.241,15.531,99.917
24.52,261.641,15.531,99.916
24.56,262.041,15.531,99.915
24.6,262.442,15.531,99.915
24.64,262.842,15.531,99.914
24.68,263.242,15.531,99.913
24.72,263.642,15.531,99.912
24.76,264.042,15.53,99.911
24.8,264.442,15.53,99.91
24.84,264.842,15.53,99.909
24.88,265.242,15.53,99.908
24.92,265.642,15.53,99.907
24.96,266.042,15.53,99.906
25,266.442,15.53,99.905
25.04,266.842,15.529,99.904
25.08,267.242,15.529,99.903
25.13,267.642,15.529,99.902
25.17,268.043,15.529,99.901
25.21,268.443,15.529,99.9
25.24,268.843,15.529,99.9
25.29,269.243,15.529,99.899
25.33,269.643,15.528,99.898
25.37,270.043,15.528,99.897
25.41,270.443,15.528,99.896
25.45,270.843,15.528,99.895
25.49,271.243,15.528,99.894
25.53,271.643,15.528,99.893
25.57,272.043,15.527,99.892
25.61,272.443,15.527,99.891
25.65,272.843,15.527,99.89
25.69,273.243,15.527,99.889
25.73,273.644,15.527,99.888
25.77,274.044,15.527,99.887
25.81,274.444,15.527,99.886
25.85,274.844,15.526,99.885
25.89,275.244,15.526,99.884
25.93,275.644,15.526,99.883
25.97,276.044,15.526,99.882
26.01,276.444,15.526,99.881
26.05,276.844,15.526,99.88
26.09,277.244,15.526,99.879
26.13,277.644,15.525,99.878
26.17,278.044,15.525,99.877
26.21,278.444,15.525,99.876
26.24,278.844,15.525,99.875
26.28,279.245,15.525,99.874
26.32,279.645,15.525,99.873
26.36,280.045,15.524,99.872
26.4,280.445,15.524,99.871
26.44,280.845,15.524,99.871
26.48,281.245,15.524,99.869
26.52,281.645,15.524,99.868
26.56,282.045,15.524,99.867
26.6,282.445,15.524,99.866
26.64,282.845,15.523,99.865
26.68,283.245,15.523,99.864
26.72,283.645,15.523,99.863
26.76,284.045,15.523,99.862
26.8,284.445,15.523,99.861
26.84,284.846,15.523,99.86
26.88,285.246,15.522,99.859
26.92,285.646,15.522,99.858
26.96,286.046,15.522,99.857
27,286.446,15.522,99.856
27.04,286.846,15.522,99.855
27.08,287.246,15.522,99.854
27.12,287.646,15.521,99.853
27.16,288.046,15.521,99.852
27.2,288.446,15.521,99.851
27.24,288.846,15.521,99.85
27.28,289.246,15.521,99.849
27.32,289.646,15.521,99.848
27.36,290.046,15.52,99.846
27.4,290.447,15.52,99.845
27.44,290.847,15.52,99.844
27.48,291.247,15.52,99.843
27.52,291.647,15.52,99.842
27.56,292.047,15.52,99.841
27.6,292.447,15.519,99.84
27.64,292.847,15.519,99.839
27.68,293.247,15.519,99.838
27.72,293.647,15.519,99.837
27.76,294.047,15.519,99.836
27.8,294.447,15.519,99.835
27.84,294.847,15.518,99.833
27.88,295.247,15.518,99.832
27.92,295.647,15.518,99.831
27.96,296.048,15.518,99.83
28,296.448,15.518,99.829
28.04,296.848,15.518,99.828
28.08,297.248,15.517,99.827
28.12,297.648,15.517,99.826
28.16,298.048,15.517,99.825
28.2,298.448,15.517,99.824
28.24,298.848,15.517,99.823
28.28,299.248,15.517,99.822
28.32,299.648,15.516,99.82
28.36,300.048,15.516,99.819
28.4,300.448,15.516,99.818
28.44,300.848,15.516,99.817
28.48,301.248,15.516,99.816
28.52,301.649,15.515,99.814
28.56,302.049,15.515,99.813
28.6,302.449,15.515,99.812
28.64,302.849,15.515,99.811
28.68,303.249,15.515,99.81
28.72,303.649,15.515,99.809
28.76,304.049,15.514,99.808
28.8,304.449,15.514,99.807
28.84,304.849,15.514,99.805
28.88,305.249,15.514,99.804
28.92,305.649,15.514,99.803
28.96,306.049,15.514,99.802
29,306.449,15.513,99.801
29.04,306.849,15.513,99.8
29.08,307.25,15.513,99.798
29.12,307.65,15.513,99.797
29.16,308.05,15.513,99.796
29.2,308.45,15.512,99.795
29.24,308.85,15.512,99.794
29.28,309.25,15.512,99.793
29.33,309.65,15.512,99.791
29.37,310.05,15.512,99.79
29.41,310.45,15.511,99.789
29.45,310.85,15.511,99.788
29.49,311.25,15.511,99.786
29.53,311.65,15.511,99.785
29.57,312.05,15.511,99.784
29.61,312.45,15.511,99.783
29.65,312.851,15.51,99.782
29.69,313.251,15.51,99.781
29.73,313.651,15.51,99.779
29.77,314.051,15.51,99.778
29.81,314.451,15.51,99.777
29.85,314.851,15.509,99.775
29.89,315.251,15.509,99.774
29.93,315.651,15.509,99.773
29.97,316.051,15.509,99.772
30.01,316.451,15.509,99.771
30.05,316.851,15.508,99.77
30.09,317.251,15.508,99.768
30.13,317.651,15.508,99.767
30.17,318.051,15.508,99.766
30.21,318.452,15.508,99.764
30.25,318.852,15.507,99.763
30.29,319.252,15.507,99.762
30.33,319.652,15.507,99.76
30.37,320.052,15.507,99.759
30.41,320.452,15.507,99.758
30.45,320.852,15.506,99.757
30.49,321.252,15.506,99.755
30.53,321.652,15.506,99.754
30.57,322.052,15.506,99.753
30.61,322.452,15.506,99.751
30.65,322.852,15.505,99.75
30.69,323.252,15.505,99.748
30.73,323.652,15.505,99.747
30.77,324.053,15.505,99.746
30.81,324.453,15.505,99.744
30.85,324.853,15.504,99.743
30.89,325.253,15.504,99.742
30.93,325.653,15.504,99.74
30.97,326.053,15.504,99.739
31.01,326.453,15.504,99.738
31.05,326.853,15.503,99.736
31.08,327.253,15.503,99.735
31.12,327.653,15.503,99.734
31.16,328.053,15.503,99.733
31.2,328.453,15.503,99.731
31.24,328.853,15.502,99.73
31.28,329.253,15.502,99.728
31.32,329.654,15.502,99.727
31.36,330.054,15.502,99.726
31.4,330.454,15.501,99.724
31.44,330.854,15.501,99.723
31.48,331.254,15.501,99.722
31.52,331.654,15.501,99.72
31.56,332.054,15.501,99.719
31.6,332.454,15.5,99.718
31.64,332.854,15.5,99.716
31.68,333.254,15.5,99.715
31.72,333.654,15.5,99.713
31.76,334.054,15.499,99.712
31.8,334.454,15.499,99.71
31.84,334.854,15.499,99.709
31.88,335.255,15.499,99.707
31.92,335.655,15.499,99.705
31.96,336.055,15.498,99.704
32,336.455,15.498,99.703
32.04,336.855,15.498,99.701
32.08,337.255,15.498,99.7
32.12,337.655,15.497,99.698
32.17,338.055,15.497,99.696
32.21,338.455,15.497,99.695
32.24,338.855,15.497,99.693
32.28,339.255,15.496,99.692
32.33,339.655,15.496,99.69
32.37,340.055,15.496,99.689
32.41,340.455,15.496,99.687
32.44,340.856,15.495,99.686
32.48,341.256,15.495,99.684
32.53,341.656,15.495,99.683
32.57,342.056,15.495,99.681
32.61,342.456,15.494,99.68
32.64,342.856,15.494,99.678
32.68,343.256,15.494,99.676
32.73,343.656,15.494,99.675
32.77,344.056,15.493,99.673
32.81,344.456,15.493,99.672
32.84,344.856,15.493,99.67
32.87,345.256,15.493,99.669
32.91,345.656,15.493,99.668
32.94,346.056,15.492,99.666
32.98,346.457,15.492,99.665
33.02,346.857,15.492,99.663
33.07,347.257,15.492,99.661
33.11,347.657,15.491,99.659
33.15,348.057,15.491,99.658
33.19,348.457,15.491,99.656
33.23,348.857,15.491,99.654
33.28,349.257,15.49,99.652
33.32,349.657,15.49,99.65
33.36,350.057,15.49,99.649
33.4,350.457,15.489,99.647
33.44,350.857,15.489,99.645
33.48,351.257,15.489,99.644
33.52,351.657,15.489,99.642
33.56,352.058,15.488,99.64
33.6,352.458,15.488,99.639
33.64,352.858,15.488,99.637
33.68,353.258,15.488,99.635
33.72,353.658,15.487,99.634
33.76,354.058,15.487,99.632
33.81,354.458,15.487,99.63
33.84,354.858,15.486,99.628
33.88,355.258,15.486,99.626
33.93,355.658,15.486,99.625
33.97,356.058,15.486,99.623
34.01,356.458,15.485,99.621
34.05,356.858,15.485,99.619
34.09,357.258,15.485,99.617
34.13,357.659,15.485,99.615
34.17,358.059,15.484,99.614
34.21,358.459,15.484,99.612
34.25,358.859,15.484,99.61
34.29,359.259,15.483,99.608
34.33,359.659,15.483,99.606
34.37,360.059,15.483,99.604
34.41,360.459,15.482,99.602
34.45,360.859,15.482,99.6
34.49,361.259,15.482,99.599
34.53,361.659,15.482,99.597
34.57,362.059,15.481,99.595
34.61,362.459,15.481,99.593
34.65,362.859,15.481,99.591
34.69,363.26,15.48,99.589
34.73,363.66,15.48,99.587
34.77,364.06,15.48,99.585
34.81,364.46,15.479,99.583
34.85,364.86,15.479,99.581
34.89,365.26,15.479,99.579
34.93,365.66,15.479,99.577
34.97,366.06,15.478,99.575
35.01,366.46,15.478,99.573
35.05,366.86,15.478,99.571
35.09,367.26,15.477,99.569
35.13,367.66,15.477,99.567
35.17,368.06,15.477,99.565
35.21,368.46,15.476,99.563
35.25,368.861,15.476,99.561
35.29,369.261,15.476,99.559
35.33,369.661,15.475,99.556
35.37,370.061,15.475,99.554
35.41,370.461,15.475,99.552
35.45,370.861,15.474,99.55
35.49,371.261,15.474,99.547
35.53,371.661,15.474,99.545
35.57,372.061,15.473,99.543
35.61,372.461,15.473,99.541
35.65,372.861,15.473,99.539
35.69,373.261,15.472,99.536
35.73,373.661,15.472,99.534
35.77,374.061,15.472,99.532
35.81,374.462,15.471,99.53
35.85,374.862,15.471,99.528
35.89,375.262,15.471,99.526
35.93,375.662,15.47,99.523
35.97,376.062,15.47,99.521
36.01,376.462,15.469,99.518
36.05,376.862,15.469,99.516
36.09,377.262,15.469,99.513
36.13,377.662,15.468,99.511
36.17,378.062,15.468,99.509
36.21,378.462,15.468,99.506
36.25,378.862,15.467,99.504
36.29,379.262,15.467,99.501
36.33,379.662,15.466,99.499
36.37,380.063,15.466,99.496
36.41,380.463,15.466,99.494
36.45,380.863,15.465,99.491
36.49,381.263,15.465,99.489
36.53,381.663,15.464,99.486
36.57,382.063,15.464,99.483
36.61,382.463,15.464,99.481
36.65,382.863,15.463,99.478
36.69,383.263,15.463,99.475
36.73,383.663,15.462,99.473
36.77,384.063,15.462,99.47
36.81,384.463,15.461,99.467
36.85,384.863,15.461,99.465
36.89,385.263,15.461,99.462
36.93,385.664,15.46,99.459
36.97,386.064,15.46,99.456
37.01,386.464,15.459,99.453
37.05,386.864,15.459,99.451
37.09,387.264,15.458,99.448
37.13,387.664,15.458,99.445
37.17,388.064,15.458,99.442
37.21,388.464,15.457,99.439
37.25,388.864,15.457,99.436
37.29,389.264,15.456,99.433
37.33,389.664,15.456,99.43
37.37,390.064,15.455,99.427
37.41,390.464,15.455,99.424
37.45,390.864,15.454,99.421
37.49,391.265,15.454,99.418
37.53,391.665,15.453,99.415
37.57,392.065,15.453,99.412
37.61,392.465,15.452,99.409
37.64,392.865,15.452,99.406
37.68,393.265,15.451,99.403
37.72,393.665,15.451,99.4
37.76,394.065,15.451,99.397
37.8,394.465,15.45,99.394
37.84,394.865,15.45,99.39
37.88,395.265,15.449,99.387
37.92,395.665,15.449,99.384
37.96,396.065,15.448,99.381
38,396.465,15.447,99.377
38.04,396.866,15.447,99.374
38.08,397.266,15.446,99.37
38.12,397.666,15.446,99.367
38.16,398.066,15.445,99.364
38.2,398.466,15.445,99.36
38.24,398.866,15.444,99.357
38.28,399.266,15.444,99.353
38.32,399.666,15.443,99.35
38.36,400.066,15.443,99.346
38.4,400.466,15.442,99.343
38.44,400.866,15.442,99.339
38.48,401.266,15.441,99.336
38.52,401.666,15.44,99.332
38.56,402.066,15.44,99.329
38.6,402.467,15.439,99.325
38.64,402.867,15.439,99.321
38.68,403.267,15.438,99.318
38.72,403.667,15.438,99.314
38.76,404.067,15.437,99.31
38.8,404.467,15.436,99.306
38.84,404.867,15.436,99.303
38.88,405.267,15.435,99.299
38.92,405.667,15.435,99.295
38.96,406.067,15.434,99.291
39,406.467,15.434,99.287
39.04,406.867,15.433,99.283
39.08,407.267,15.432,99.279
39.12,407.667,15.432,99.276
39.16,408.068,15.431,99.272
39.2,408.468,15.43,99.267
39.24,408.868,15.43,99.263
39.28,409.268,15.429,99.259
39.32,409.668,15.428,99.255
39.36,410.068,15.428,99.25
39.41,410.468,15.427,99.246
39.44,410.868,15.426,99.242
39.49,411.268,15.426,99.237
39.53,411.668,15.425,99.233
39.56,412.068,15.424,99.228
39.61,412.468,15.424,99.223
39.64,412.868,15.423,99.219
39.69,413.268,15.422,99.214
39.73,413.669,15.421,99.209
39.77,414.069,15.421,99.204
39.81,414.469,15.42,99.199
39.85,414.869,15.419,99.194
39.89,415.269,15.418,99.189
39.93,415.669,15.417,99.183
39.97,416.069,15.417,99.178
40.01,416.469,15.416,99.173
40.05,416.869,15.415,99.168
40.09,417.269,15.414,99.162
40.13,417.669,15.413,99.156
40.17,418.069,15.412,99.151
40.21,418.469,15.411,99.145
40.25,418.869,15.41,99.139
40.29,419.27,15.41,99.133
40.33,419.67,15.409,99.127
40.37,420.07,15.408,99.121
40.41,420.47,15.407,99.115
40.45,420.87,15.406,99.108
40.49,421.27,15.405,99.101
40.53,421.67,15.404,99.095
40.57,422.07,15.402,99.088
40.61,422.47,15.401,99.081
40.65,422.87,15.4,99.074
40.69,423.27,15.399,99.066
40.73,423.67,15.398,99.059
40.77,424.07,15.397,99.052
40.81,424.47,15.396,99.044
40.85,424.871,15.395,99.037
40.89,425.271,15.393,99.029
40.93,425.671,15.392,99.021
40.97,426.071,15.391,99.013
41.01,426.471,15.39,99.005
41.05,426.871,15.388,98.997
41.09,427.271,15.387,98.988
41.13,427.671,15.386,98.98
41.17,428.071,15.384,98.971
41.21,428.471,15.383,98.962
41.25,428.871,15.381,98.953
41.29,429.271,15.38,98.943
41.33,429.671,15.379,98.934
41.37,430.071,15.377,98.924
41.41,430.472,15.376,98.914
41.45,430.872,15.374,98.904
41.49,431.272,15.372,98.894
41.53,431.672,15.371,98.884
41.57,432.072,15.369,98.873
41.61,432.472,15.367,98.862
41.65,432.872,15.366,98.851
41.69,433.272,15.364,98.84
41.73,433.672,15.362,98.828
41.77,434.072,15.36,98.816
41.81,434.472,15.358,98.804
41.85,434.872,15.356,98.792
41.89,435.272,15.354,98.779
41.93,435.672,15.352,98.766
41.97,436.073,15.35,98.753
42.01,436.473,15.348,98.74
42.05,436.873,15.346,98.726
42.09,437.273,15.344,98.712
42.13,437.673,15.342,98.697
42.17,438.073,15.339,98.682
42.21,438.473,15.337,98.666
42.25,438.873,15.335,98.651
42.29,439.273,15.332,98.634
42.33,439.673,15.329,98.618
42.37,440.073,15.327,98.601
42.41,440.473,15.324,98.583
42.45,440.873,15.321,98.565
42.49,441.273,15.318,98.547
42.53,441.674,15.315,98.527
42.57,442.074,15.312,98.508
42.61,442.474,15.309,98.488
42.65,442.874,15.306,98.466
42.69,443.274,15.303,98.445
42.73,443.674,15.299,98.423
42.77,444.074,15.295,98.399
42.81,444.474,15.292,98.376
42.85,444.874,15.288,98.351
42.89,445.274,15.284,98.326
42.93,445.674,15.28,98.3
42.97,446.074,15.276,98.274
43.01,446.474,15.272,98.246
43.05,446.874,15.267,98.218
43.09,447.275,15.263,98.188
43.13,447.675,15.258,98.157
43.17,448.075,15.253,98.124
43.21,448.475,15.247,98.089
43.25,448.875,15.242,98.053
43.29,449.275,15.236,98.017
43.33,449.675,15.23,97.979
43.37,450.075,15.224,97.941
43.41,450.475,15.218,97.901
43.45,450.875,15.212,97.86
43.49,451.275,15.205,97.816
43.53,451.675,15.198,97.774
43.57,452.075,15.192,97.731
43.61,452.475,15.185,97.688
43.65,452.876,15.178,97.642
43.69,453.276,15.17,97.595
43.73,453.676,15.163,97.548
43.77,454.076,15.156,97.5
43.81,454.476,15.148,97.45
43.85,454.876,15.14,97.402
43.89,455.276,15.133,97.352
43.93,455.676,15.125,97.302
43.97,456.076,15.117,97.253
44.01,456.476,15.109,97.202
44.05,456.876,15.101,97.151
44.09,457.276,15.093,97.099
44.13,457.676,15.085,97.047
44.17,458.076,15.077,96.994
44.21,458.477,15.069,96.941
44.25,458.877,15.06,96.887
44.29,459.277,15.052,96.833
44.33,459.677,15.044,96.779
44.37,460.077,15.035,96.724
44.41,460.477,15.026,96.668
44.45,460.877,15.018,96.613
44.49,461.277,15.009,96.555
44.53,461.677,15,96.497
44.57,462.077,14.991,96.437
44.61,462.477,14.981,96.379
44.65,462.877,14.972,96.32
44.69,463.277,14.963,96.26
44.73,463.677,14.954,96.2
44.77,464.078,14.944,96.141
44.81,464.478,14.935,96.08
44.85,464.878,14.925,96.016
44.89,465.278,14.915,95.952
44.93,465.678,14.905,95.887
44.97,466.078,14.895,95.822
45.01,466.478,14.885,95.757
45.05,466.878,14.874,95.69
45.09,467.278,14.864,95.622
45.13,467.678,14.853,95.554
45.17,468.078,14.843,95.487
45.21,468.478,14.832,95.418
45.25,468.878,14.821,95.347
45.29,469.278,14.81,95.277
45.33,469.679,14.799,95.205
45.37,470.079,14.788,95.132
45.41,470.479,14.776,95.059
45.45,470.879,14.765,94.985
45.49,471.279,14.753,94.912
45.53,471.679,14.742,94.839
45.57,472.079,14.73,94.761
45.61,472.479,14.718,94.682
45.65,472.879,14.705,94.604
45.69,473.279,14.693,94.524
45.73,473.679,14.679,94.436
45.77,474.079,14.664,94.34
45.81,474.479,14.649,94.24
45.85,474.879,14.633,94.136
45.89,475.28,14.616,94.029
45.93,475.68,14.599,93.917
45.97,476.08,14.581,93.802
46.01,476.48,14.563,93.689
46.04,476.88,14.544,93.566
46.09,477.28,14.525,93.444
46.13,477.68,14.505,93.315
46.17,478.08,14.483,93.173
46.21,478.48,14.461,93.032
46.24,478.88,14.437,92.874
46.29,479.28,14.413,92.723
46.33,479.68,14.389,92.568
46.36,480.08,14.364,92.404
46.4,480.48,14.338,92.242
46.44,480.881,14.31,92.062
46.48,481.281,14.281,91.87
46.52,481.681,14.254,91.699
46.56,482.081,14.226,91.522
46.6,482.481,14.197,91.33
46.64,482.881,14.163,91.116
46.68,483.281,14.128,90.886
46.72,483.681,14.094,90.668
46.76,484.081,14.061,90.458
46.8,484.481,14.024,90.219
46.84,484.881,13.986,89.973
46.88,485.281,13.951,89.747
46.92,485.681,13.913,89.508
46.96,486.081,13.87,89.226
47,486.482,13.828,88.958
47.04,486.882,13.785,88.682
47.08,487.282,13.739,88.388
47.12,487.682,13.692,88.083
47.16,488.082,13.644,87.774
47.2,488.482,13.59,87.431
47.24,488.882,13.539,87.1
47.28,489.282,13.485,86.75
47.32,489.682,13.427,86.377
47.36,490.082,13.373,86.034
47.4,490.482,13.314,85.652
47.44,490.882,13.255,85.275
47.48,491.282,13.192,84.868
47.52,491.682,13.129,84.461
47.56,492.083,13.064,84.042
47.6,492.483,12.997,83.611
47.64,492.883,12.924,83.144
47.68,493.283,12.852,82.682
47.72,493.683,12.78,82.219
47.76,494.083,12.702,81.716
47.8,494.483,12.623,81.205
47.84,494.883,12.539,80.664
47.88,495.283,12.455,80.125
47.92,495.683,12.369,79.573
47.96,496.083,12.284,79.024
48,496.483,12.189,78.413
48.04,496.883,12.097,77.82
48.08,497.283,11.995,77.164
48.12,497.684,11.893,76.509
48.16,498.084,11.79,75.847
48.2,498.484,11.684,75.163
48.24,498.884,11.574,74.461
48.28,499.284,11.459,73.72
48.32,499.684,11.345,72.986
48.36,500.084,11.225,72.216
48.4,500.484,11.101,71.415
48.44,500.884,10.971,70.581
48.48,501.284,10.841,69.74
48.52,501.684,10.706,68.876
48.56,502.084,10.568,67.985
48.6,502.484,10.427,67.077
48.64,502.884,10.28,66.133
48.68,503.285,10.138,65.218
48.72,503.685,9.984,64.227
48.76,504.085,9.826,63.215
48.8,504.485,9.674,62.234
48.84,504.885,9.512,61.196
48.88,505.285,9.346,60.123
48.92,505.685,9.177,59.041
48.96,506.085,9.005,57.933
49,506.485,8.827,56.789
49.04,506.885,8.645,55.617
49.08,507.285,8.464,54.452
49.12,507.685,8.276,53.244
49.16,508.085,8.088,52.035
49.2,508.485,7.887,50.74
49.24,508.886,7.701,49.54
49.28,509.286,7.501,48.254
49.32,509.686,7.302,46.977
49.36,510.086,7.1,45.676
49.4,510.486,6.893,44.345
49.44,510.886,6.683,42.993
49.49,511.286,6.466,41.598
49.53,511.686,6.249,40.204
49.56,512.086,6.035,38.824
49.61,512.486,5.82,37.441
49.64,512.886,5.601,36.031
49.69,513.286,5.379,34.607
49.73,513.686,5.163,33.215
49.76,514.086,4.943,31.799
49.81,514.487,4.719,30.357
49.84,514.887,4.503,28.966
49.89,515.287,4.28,27.535
49.93,515.687,4.069,26.177
49.96,516.087,3.848,24.757
50.01,516.487,3.636,23.392
50.04,516.887,3.423,22.02
50.09,517.287,3.217,20.695
50.12,517.687,3.015,19.397
50.16,518.087,2.811,18.084
50.2,518.487,2.616,16.826
50.24,518.887,2.425,15.599
50.28,519.287,2.232,14.358
50.32,519.687,2.05,13.191
50.36,520.088,1.874,12.058
50.4,520.488,1.705,10.97
50.44,520.888,1.544,9.934
50.48,521.288,1.389,8.934
50.52,521.688,1.244,8
50.56,522.088,1.107,7.123
50.6,522.488,0.9790000,6.298
50.64,522.888,0.8600000,5.534
50.68,523.288,0.7510000,4.831
50.72,523.688,0.6520000,4.193
50.76,524.088,0.5630000,3.62
50.8,524.488,0.4840000,3.115
50.84,524.888,0.4160000,2.678
50.88,525.288,0.3580000,2.304
50.92,525.689,0.3100000,1.994
50.96,526.089,0.2710000,1.741
51,526.489,0.2390000,1.538
51.04,526.889,0.2140000,1.377
51.08,527.289,0.1950000,1.253
51.12,527.689,0.1800000,1.159
51.16,528.089,0.1700000,1.092
51.2,528.489,0.1620000,1.044
51.24,528.889,0.1570000,1.012
51.28,529.289,0.1540000,0.9920000
51.32,529.689,0.1520000,0.9780000
51.36,530.089,0.1500000,0.9630000
51.41,530.489,0.1480000,0.9490000
51.44,530.889,0.1460000,0.9370000
51.49,531.29,0.1440000,0.9250000
51.53,531.69,0.1420000,0.9160000
51.57,532.09,0.1410000,0.9070000
51.61,532.49,0.1400000,0.9000000
51.65,532.89,0.1390000,0.8940000
51.69,533.29,0.1380000,0.8890000
51.73,533.69,0.1380000,0.8850000
51.77,534.09,0.1370000,0.8820000
51.81,534.49,0.1370000,0.8790000
51.85,534.89,0.1360000,0.8770000
51.89,535.29,0.1360000,0.8750000
51.93,535.69,0.1360000,0.8730000
51.97,536.09,0.1360000,0.8720000
52.01,536.49,0.1350000,0.8710000
52.05,536.891,0.1350000,0.8700000
52.09,537.291,0.1350000,0.8690000
52.13,537.691,0.1350000,0.8680000
52.17,538.091,0.1350000,0.8680000
52.21,538.491,0.1350000,0.8670000
52.25,538.891,0.1350000,0.8670000
52.29,539.291,0.1350000,0.8670000
52.33,539.691,0.1350000,0.8660000
52.37,540.091,0.1350000,0.8660000
52.41,540.491,0.1350000,0.8660000
52.45,540.891,0.1350000,0.8660000
52.49,541.291,0.1350000,0.8660000
52.53,541.691,0.1350000,0.8660000
52.57,542.091,0.1350000,0.8660000
52.61,542.492,0.1350000,0.8650000
52.65,542.892,0.1350000,0.8650000
52.69,543.292,0.1350000,0.8650000
52.73,543.692,0.1340000,0.8650000
52.77,544.092,0.1340000,0.8650000
52.81,544.492,0.1340000,0.8650000
52.85,544.892,0.1340000,0.8650000
52.89,545.292,0.1340000,0.8650000
52.93,545.692,0.1340000,0.8640000
52.97,546.092,0.1340000,0.8640000
53.01,546.492,0.1340000,0.8640000
53.04,546.892,0.1340000,0.8640000
53.09,547.292,0.1340000,0.8640000
53.12,547.692,0.1340000,0.8640000
53.16,548.093,0.1340000,0.8640000
53.2,548.493,0.1340000,0.8640000
53.24,548.893,0.1340000,0.8640000
53.28,549.293,0.1340000,0.8640000
53.32,549.693,0.1340000,0.8640000
53.36,550.093,0.1340000,0.8640000
53.4,550.493,0.1340000,0.8640000
53.44,550.893,0.1340000,0.8630000
53.48,551.293,0.1340000,0.8630000
53.52,551.693,0.1340000,0.8630000
53.56,552.093,0.1340000,0.8630000
53.6,552.493,0.1340000,0.8630000
53.64,552.893,0.1340000,0.8630000
53.68,553.293,0.1340000,0.8630000
53.73,553.694,0.1340000,0.8630000
53.76,554.094,0.1340000,0.8630000
53.81,554.494,0.1340000,0.8630000
53.84,554.894,0.1340000,0.8620000
53.89,555.294,0.1340000,0.8620000
53.93,555.694,0.1340000,0.8620000
53.96,556.094,0.1340000,0.8620000
54,556.494,0.1340000,0.8620000
54.04,556.894,0.1340000,0.8620000
54.08,557.294,0.1340000,0.8620000
54.12,557.694,0.1340000,0.8620000
54.16,558.094,0.1340000,0.8620000
54.2,558.494,0.1340000,0.8620000
54.24,558.894,0.1340000,0.8620000
54.28,559.295,0.1340000,0.8620000
54.32,559.695,0.1340000,0.8620000
54.36,560.095,0.1340000,0.8610000
54.4,560.495,0.1340000,0.8610000
54.44,560.895,0.1340000,0.8610000
54.48,561.295,0.1340000,0.8610000
54.52,561.695,0.1340000,0.8610000
54.56,562.095,0.1340000,0.8610000
54.6,562.495,0.1340000,0.8610000
54.64,562.895,0.1340000,0.8610000
54.68,563.295,0.1340000,0.8610000
54.72,563.695,0.1340000,0.8610000
54.76,564.095,0.1340000,0.8610000
54.8,564.495,0.1340000,0.8610000
54.84,564.896,0.1340000,0.8610000
54.87,565.296,0.1340000,0.8610000
54.91,565.696,0.1340000,0.8610000
54.95,566.096,0.1340000,0.8610000
54.99,566.496,0.1340000,0.8610000
55.03,566.896,0.1340000,0.8600000
55.07,567.296,0.1340000,0.8600000
55.11,567.696,0.1340000,0.8600000
55.15,568.096,0.1340000,0.8600000
55.19,568.496,0.1340000,0.8600000
55.23,568.896,0.1340000,0.8590000
55.27,569.296,0.1340000,0.8590000
55.31,569.696,0.1340000,0.8590000
55.35,570.096,0.1330000,0.8590000
55.39,570.497,0.1330000,0.8590000
55.43,570.897,0.1330000,0.8590000
55.47,571.297,0.1330000,0.8590000
55.51,571.697,0.1330000,0.8580000
55.56,572.097,0.1330000,0.8580000
55.59,572.497,0.1330000,0.8580000
55.64,572.897,0.1330000,0.8580000
55.68,573.297,0.1330000,0.8580000
55.71,573.697,0.1330000,0.8580000
55.76,574.097,0.1330000,0.8580000
55.79,574.497,0.1330000,0.8570000
55.84,574.897,0.1330000,0.8570000
55.88,575.297,0.1330000,0.8570000
55.92,575.697,0.1330000,0.8570000
55.96,576.098,0.1330000,0.8570000
56,576.498,0.1330000,0.8570000
56.04,576.898,0.1330000,0.8570000
56.08,577.298,0.1330000,0.8570000
56.12,577.698,0.1330000,0.8560000
56.16,578.098,0.1330000,0.8560000
56.2,578.498,0.1330000,0.8560000
56.24,578.898,0.1330000,0.8560000
56.28,579.298,0.1330000,0.8560000
56.32,579.698,0.1330000,0.8560000
56.36,580.098,0.1330000,0.8550000
56.4,580.498,0.1330000,0.8550000
56.44,580.898,0.1330000,0.8550000
56.48,581.298,0.1330000,0.8550000
56.52,581.699,0.1330000,0.8550000
56.56,582.099,0.1330000,0.8550000
56.6,582.499,0.1330000,0.8550000
56.64,582.899,0.1330000,0.8550000
56.68,583.299,0.1330000,0.8540000
56.72,583.699,0.1330000,0.8540000
56.76,584.099,0.1330000,0.8540000
56.8,584.499,0.1330000,0.8540000
56.84,584.899,0.1330000,0.8530000
56.88,585.299,0.1330000,0.8530000
56.92,585.699,0.1330000,0.8530000
56.96,586.099,0.1330000,0.8530000
57,586.499,0.1330000,0.8530000
57.04,586.899,0.1330000,0.8530000
57.08,587.3,0.1330000,0.8530000
57.12,587.7,0.1330000,0.8530000
57.16,588.1,0.1330000,0.8520000
57.2,588.5,0.1320000,0.8520000
57.24,588.9,0.1320000,0.8520000
57.28,589.3,0.1320000,0.8520000
57.32,589.7,0.1320000,0.8510000
57.35,590,0.1320000,0.8510000