File: R/rHDPE_App/app/www/Output/TGA/Condensed_Data/Resin5_1__1.csv
1.14,30,15.353,100.034,0.0030262
1.2,30.5001,15.353,100.035,0.0019809
1.25,31.0002,15.353,100.037,0.0047725
1.31,31.5003,15.354,100.038,0.0003076
1.37,32.0004,15.354,100.039,0.0010668
1.42,32.5004,15.354,100.04,0.0007574
1.48,33.0005,15.354,100.041,0.0014655
1.53,33.5006,15.354,100.041,0.0017085
1.58,34.0007,15.354,100.043,0.0026964
1.64,34.5008,15.355,100.044,0.0016137
1.69,35.0009,15.355,100.045,0.0020180
1.74,35.501,15.355,100.046,0.0003312
1.8,36.0011,15.355,100.046,0.0018810
1.85,36.5012,15.355,100.047,0.0010672
1.91,37.0013,15.355,100.047,0.0013070
1.96,37.5013,15.355,100.048,0.0020819
2.02,38.0014,15.355,100.049,0.0014768
2.06,38.5015,15.355,100.05,0.0012559
2.12,39.0016,15.355,100.05,0.0012988
2.17,39.5017,15.356,100.051,0.0011972
2.22,40.0018,15.356,100.051,0.0012071
2.27,40.5019,15.356,100.052,0.0005297
2.33,41.002,15.356,100.052,0.0017921
2.38,41.5021,15.356,100.053,0.0021648
2.43,42.0021,15.356,100.054,0.0015693
2.48,42.5022,15.356,100.054,0.0011892
2.54,43.0023,15.356,100.055,0.0017806
2.59,43.5024,15.356,100.056,0.0014547
2.64,44.0025,15.356,100.056,0.0007349
2.69,44.5026,15.356,100.057,0.0012529
2.74,45.0027,15.357,100.058,0.0013985
2.79,45.5028,15.357,100.058,0.0013345
2.85,46.0029,15.357,100.059,0.0012315
2.9,46.5029,15.357,100.059,0.0010787
2.95,47.003,15.357,100.06,0.0012990
3,47.5031,15.357,100.061,0.0013295
3.05,48.0032,15.357,100.061,0.0010637
3.1,48.5033,15.357,100.062,0.0017726
3.15,49.0034,15.357,100.062,0.0011585
3.2,49.5035,15.357,100.063,0.0009207
3.26,50.0036,15.357,100.063,0.0006938
3.31,50.5037,15.358,100.064,0.0006542
3.36,51.0038,15.358,100.064,0.0007600
3.41,51.5038,15.358,100.065,0.0011156
3.46,52.0039,15.358,100.065,0.0013010
3.51,52.504,15.358,100.065,0.0013001
3.56,53.0041,15.358,100.066,0.0003714
3.61,53.5042,15.358,100.066,0.0003712
3.66,54.0043,15.358,100.067,0.0006961
3.71,54.5044,15.358,100.067,0.0011578
3.76,55.0045,15.358,100.068,0.0013641
3.81,55.5046,15.358,100.068,0.0010530
3.86,56.0046,15.358,100.069,0.0015787
3.91,56.5047,15.358,100.07,0.0016643
3.96,57.0048,15.359,100.071,0.0011541
4.01,57.5049,15.359,100.071,0.0011613
4.06,58.005,15.359,100.072,0.0010538
4.11,58.5051,15.359,100.072,0.0014764
4.16,59.0052,15.359,100.073,0.0010608
4.21,59.5053,15.359,100.073,0.0010608
4.27,60.0054,15.359,100.074,0.0008758
4.32,60.5054,15.359,100.074,0.0002767
4.37,61.0055,15.359,100.075,0.0014667
4.42,61.5056,15.359,100.076,0.0012911
4.47,62.0057,15.359,100.076,0.0008826
4.52,62.5058,15.36,100.077,0.0013046
4.57,63.0059,15.36,100.078,0.0013362
4.62,63.506,15.36,100.078,0.0011181
4.67,64.0061,15.36,100.078,0.0006539
4.72,64.5062,15.36,100.079,0.0011599
4.77,65.0063,15.36,100.079,0.0005989
4.82,65.5063,15.36,100.08,0.0011964
4.87,66.0064,15.36,100.081,0.0013483
4.92,66.5065,15.36,100.081,0.0013357
4.97,67.0066,15.36,100.082,0.0011052
5.02,67.5067,15.36,100.082,0.0005067
5.07,68.0068,15.36,100.083,0.0009675
5.12,68.5069,15.361,100.083,0.0009418
5.17,69.007,15.361,100.084,0.0006906
5.22,69.5071,15.361,100.084,0.0008649
5.27,70.0071,15.361,100.084,0.0006902
5.32,70.5072,15.361,100.085,0.0007358
5.37,71.0073,15.361,100.085,0.0005929
5.42,71.5074,15.361,100.086,0.0014326
5.47,72.0075,15.361,100.086,0.0013155
5.52,72.5076,15.361,100.087,0.0003517
5.57,73.0077,15.361,100.087,0.0006569
5.62,73.5078,15.361,100.088,0.0007307
5.67,74.0079,15.361,100.088,0.0000460
5.72,74.5079,15.361,100.088,0.0005488
5.77,75.008,15.361,100.089,0.0009705
5.82,75.5081,15.361,100.089,0.0009563
5.87,76.0082,15.361,100.089,0.0009460
5.92,76.5083,15.362,100.09,0.0009915
5.97,77.0084,15.362,100.09,0.0010126
6.02,77.5085,15.362,100.091,0.0009986
6.07,78.0086,15.362,100.091,0.0015193
6.13,78.5087,15.362,100.092,0.0008735
6.18,79.0088,15.362,100.092,0.0008729
6.23,79.5088,15.362,100.093,0.0009640
6.28,80.0089,15.362,100.093,0.0009639
6.33,80.509,15.362,100.093,0.0006889
6.38,81.0091,15.362,100.094,0.0007809
6.43,81.5092,15.362,100.094,0.0008867
6.48,82.0093,15.362,100.095,0.0005514
6.53,82.5094,15.362,100.095,0.0005510
6.58,83.0095,15.362,100.095,0.0008231
6.63,83.5096,15.362,100.096,0.0010552
6.68,84.0096,15.363,100.096,0.0010611
6.73,84.5097,15.363,100.097,0.0010087
6.78,85.0098,15.363,100.097,0.0010094
6.83,85.5099,15.363,100.098,0.0008163
6.88,86.01,15.363,100.098,0.0006365
6.93,86.5101,15.363,100.099,0.0009698
6.98,87.0102,15.363,100.099,0.0006119
7.03,87.5103,15.363,100.099,0.0006831
7.08,88.0104,15.363,100.1,0.0004976
7.13,88.5104,15.363,100.1,0.0007667
7.18,89.0105,15.363,100.1,0.0009163
7.23,89.5106,15.363,100.101,0.0008700
7.28,90.0107,15.363,100.101,0.0007284
7.33,90.5108,15.363,100.101,0.0005496
7.38,91.0109,15.363,100.102,0.0006380
7.43,91.511,15.363,100.102,0.0003096
7.48,92.0111,15.363,100.102,0.0007126
7.53,92.5112,15.364,100.103,0.0007794
7.58,93.0113,15.364,100.103,0.0006183
7.63,93.5113,15.364,100.103,0.0005822
7.68,94.0114,15.364,100.104,0.0007789
7.73,94.5115,15.364,100.104,0.0005235
7.78,95.0116,15.364,100.104,0.0007591
7.83,95.5117,15.364,100.104,0.0007782
7.88,96.0118,15.364,100.105,0.0005035
7.93,96.5119,15.364,100.105,0.0005036
7.98,97.012,15.364,100.105,0.0004580
8.03,97.5121,15.364,100.106,0.0006376
8.08,98.0121,15.364,100.106,0.0005500
8.13,98.5122,15.364,100.106,0.0005146
8.18,99.0123,15.364,100.107,0.0002746
8.23,99.5124,15.364,100.107,0.0005646
8.28,100.013,15.364,100.107,0.0007324
8.33,100.513,15.364,100.107,0.0011323
8.38,101.013,15.364,100.108,0.0006433
8.43,101.513,15.364,100.108,0.0001766
8.48,102.013,15.364,100.108,0.0005038
8.53,102.513,15.364,100.108,0.0004120
8.58,103.013,15.364,100.109,0.0008437
8.63,103.513,15.364,100.109,0.0005450
8.68,104.013,15.365,100.109,0.0003469
8.73,104.513,15.365,100.109,0.0002331
8.78,105.013,15.365,100.11,0.0006408
8.83,105.513,15.365,100.11,0.0002746
8.88,106.014,15.365,100.11,0.0005074
8.93,106.514,15.365,100.11,0.0003448
8.98,107.014,15.365,100.11,0.0005038
9.03,107.514,15.365,100.111,0.0007335
9.08,108.014,15.365,100.111,0.0003340
9.13,108.514,15.365,100.111,0.0006356
9.18,109.014,15.365,100.111,0.0007326
9.23,109.514,15.365,100.111,0.0003661
9.28,110.014,15.365,100.112,0.0004120
9.33,110.514,15.365,100.112,0.0002369
9.38,111.014,15.365,100.112,0.0000000
9.43,111.515,15.365,100.112,0.0002298
9.48,112.015,15.365,100.112,0.0005270
9.53,112.515,15.365,100.112,0.0003859
9.58,113.015,15.365,100.113,0.0000000
9.63,113.515,15.365,100.113,0.0005021
9.68,114.015,15.365,100.113,0.0000914
9.73,114.515,15.365,100.113,0.0002276
9.78,115.015,15.365,100.113,0.0004114
9.83,115.515,15.365,100.113,0.0003219
9.88,116.015,15.365,100.113,0.0003208
9.93,116.515,15.365,100.113,0.0004128
9.98,117.016,15.365,100.114,0.0002944
10.03,117.516,15.365,100.114,0.0003799
10.08,118.016,15.365,100.114,0.0005046
10.13,118.516,15.365,100.114,0.0004960
10.18,119.016,15.365,100.114,0.0002108
10.23,119.516,15.365,100.114,0.0003209
10.28,120.016,15.365,100.114,0.0005959
10.33,120.516,15.365,100.115,0.0001507
10.38,121.016,15.365,100.115,0.0004130
10.43,121.516,15.365,100.115,0.0001377
10.48,122.016,15.365,100.115,0.0001296
10.53,122.517,15.365,100.115,0.0000125
10.58,123.017,15.365,100.115,0.0002753
10.63,123.517,15.365,100.115,0.0004129
10.68,124.017,15.365,100.115,0.0002384
10.73,124.517,15.365,100.115,0.0003212
10.78,125.017,15.365,100.115,-0.0001294
10.83,125.517,15.365,100.115,0.0006946
10.88,126.017,15.365,100.115,0.0001378
10.93,126.517,15.365,100.115,-0.0000660
10.98,127.017,15.365,100.115,-0.0000918
11.03,127.517,15.365,100.115,0.0001559
11.08,128.018,15.365,100.115,-0.0001595
11.13,128.518,15.365,100.115,0.0000000
11.18,129.018,15.365,100.115,0.0000460
11.23,129.518,15.365,100.115,0.0001435
11.28,130.018,15.365,100.116,0.0002753
11.33,130.518,15.366,100.116,0.0001134
11.38,131.018,15.366,100.116,-0.0001276
11.43,131.518,15.365,100.116,0.0000917
11.48,132.018,15.366,100.116,-0.0002752
11.53,132.518,15.365,100.116,-0.0001376
11.58,133.018,15.365,100.116,-0.0001559
11.63,133.518,15.366,100.116,0.0003668
11.68,134.019,15.366,100.116,-0.0001377
11.73,134.519,15.365,100.116,-0.0000616
11.78,135.019,15.365,100.115,0.0000000
11.83,135.519,15.365,100.116,0.0000000
11.88,136.019,15.365,100.116,-0.0002652
11.93,136.519,15.365,100.116,-0.0003212
11.98,137.019,15.365,100.116,0.0003448
12.03,137.519,15.366,100.116,0.0001828
12.08,138.019,15.366,100.116,0.0001842
12.13,138.519,15.366,100.116,-0.0002741
12.18,139.019,15.366,100.116,0.0000000
12.23,139.52,15.366,100.116,0.0001425
12.28,140.02,15.365,100.116,-0.0002748
12.33,140.52,15.365,100.115,-0.0001284
12.38,141.02,15.365,100.115,-0.0003199
12.43,141.52,15.365,100.115,-0.0001422
12.48,142.02,15.365,100.115,-0.0004110
12.53,142.52,15.365,100.115,-0.0004115
12.58,143.02,15.365,100.115,-0.0003202
12.63,143.52,15.365,100.115,0.0000000
12.68,144.02,15.365,100.115,-0.0000479
12.73,144.52,15.365,100.115,0.0001604
12.78,145.021,15.365,100.115,0.0000917
12.83,145.521,15.365,100.115,0.0000822
12.88,146.021,15.365,100.115,0.0000410
12.93,146.521,15.365,100.115,0.0000851
12.98,147.021,15.365,100.115,-0.0001834
13.03,147.521,15.365,100.115,0.0000917
13.08,148.021,15.365,100.115,0.0002751
13.13,148.521,15.365,100.115,0.0001411
13.18,149.021,15.365,100.115,0.0002126
13.23,149.521,15.365,100.115,0.0001195
13.28,150.021,15.365,100.115,0.0003863
13.33,150.522,15.365,100.116,0.0000879
13.38,151.022,15.366,100.116,0.0000000
13.43,151.522,15.366,100.116,0.0002828
13.48,152.022,15.366,100.116,0.0003300
13.53,152.522,15.366,100.116,0.0004503
13.58,153.022,15.366,100.116,-0.0000779
13.64,153.522,15.366,100.116,0.0001630
13.68,154.022,15.366,100.116,-0.0001374
13.73,154.522,15.366,100.116,-0.0006491
13.78,155.022,15.366,100.116,0.0000000
13.83,155.522,15.366,100.116,-0.0004576
13.88,156.023,15.366,100.116,0.0001371
13.93,156.523,15.365,100.116,-0.0000524
13.98,157.023,15.365,100.115,-0.0003651
14.03,157.523,15.365,100.115,-0.0005928
14.08,158.023,15.365,100.115,-0.0004247
14.13,158.523,15.365,100.115,-0.0010947
14.18,159.023,15.365,100.114,-0.0015525
14.23,159.523,15.365,100.113,-0.0010966
14.28,160.023,15.365,100.113,-0.0013702
14.33,160.523,15.365,100.112,-0.0017725
14.38,161.023,15.365,100.111,-0.0021952
14.43,161.523,15.365,100.11,-0.0022674
14.48,162.024,15.364,100.109,-0.0020106
14.53,162.524,15.364,100.108,-0.0019199
14.58,163.024,15.364,100.106,-0.0025702
14.63,163.524,15.364,100.105,-0.0023530
14.68,164.024,15.364,100.104,-0.0025518
14.73,164.524,15.364,100.103,-0.0026532
14.78,165.024,15.363,100.102,-0.0023266
14.83,165.524,15.363,100.101,-0.0018744
14.88,166.024,15.363,100.1,-0.0019207
14.93,166.524,15.363,100.098,-0.0020975
14.98,167.024,15.363,100.097,-0.0018315
15.03,167.525,15.363,100.096,-0.0021038
15.08,168.025,15.362,100.095,-0.0021553
15.13,168.525,15.362,100.094,-0.0019724
15.18,169.025,15.362,100.094,-0.0018720
15.23,169.525,15.362,100.093,-0.0017820
15.28,170.025,15.362,100.092,-0.0017419
15.33,170.525,15.362,100.091,-0.0017043
15.38,171.025,15.362,100.09,-0.0015213
15.43,171.525,15.361,100.089,-0.0019266
15.48,172.025,15.361,100.088,-0.0014675
15.53,172.525,15.361,100.088,-0.0014342
15.58,173.026,15.361,100.087,-0.0015968
15.63,173.526,15.361,100.086,-0.0018363
15.68,174.026,15.361,100.085,-0.0017144
15.73,174.526,15.361,100.084,-0.0013762
15.78,175.026,15.361,100.084,-0.0019725
15.83,175.526,15.36,100.083,-0.0014706
15.88,176.026,15.36,100.082,-0.0014669
15.93,176.526,15.36,100.081,-0.0014174
15.98,177.026,15.36,100.081,-0.0013726
16.03,177.526,15.36,100.08,-0.0017149
16.08,178.026,15.36,100.079,-0.0017295
16.13,178.527,15.36,100.078,-0.0016468
16.18,179.027,15.36,100.077,-0.0020259
16.23,179.527,15.359,100.076,-0.0016939
16.28,180.027,15.359,100.076,-0.0016456
16.34,180.527,15.359,100.075,-0.0018435
16.38,181.027,15.359,100.074,-0.0020152
16.43,181.527,15.359,100.073,-0.0020620
16.48,182.027,15.359,100.072,-0.0017613
16.53,182.527,15.359,100.071,-0.0016250
16.58,183.027,15.359,100.07,-0.0019835
16.63,183.527,15.358,100.07,-0.0015159
16.68,184.028,15.358,100.069,-0.0017955
16.73,184.528,15.358,100.068,-0.0022049
16.78,185.028,15.358,100.067,-0.0018918
16.83,185.528,15.358,100.066,-0.0019733
16.88,186.028,15.358,100.065,-0.0019144
16.93,186.528,15.358,100.064,-0.0020693
16.98,187.028,15.357,100.063,-0.0019820
17.03,187.528,15.357,100.062,-0.0020592
17.08,188.028,15.357,100.061,-0.0018799
17.14,188.528,15.357,100.06,-0.0019720
17.18,189.028,15.357,100.059,-0.0021554
17.23,189.528,15.357,100.058,-0.0023654
17.29,190.029,15.356,100.057,-0.0017511
17.34,190.529,15.356,100.056,-0.0014658
17.39,191.029,15.356,100.055,-0.0025065
17.44,191.529,15.356,100.054,-0.0026433
17.49,192.029,15.356,100.052,-0.0024991
17.54,192.529,15.356,100.051,-0.0019788
17.59,193.029,15.355,100.05,-0.0026468
17.64,193.529,15.355,100.049,-0.0019703
17.69,194.029,15.355,100.048,-0.0023167
17.74,194.529,15.355,100.047,-0.0025939
17.79,195.029,15.355,100.046,-0.0021916
17.84,195.53,15.355,100.044,-0.0024367
17.89,196.03,15.354,100.043,-0.0022428
17.94,196.53,15.354,100.042,-0.0026679
17.99,197.03,15.354,100.041,-0.0026130
18.04,197.53,15.354,100.04,-0.0025858
18.09,198.03,15.354,100.038,-0.0025172
18.14,198.53,15.353,100.037,-0.0028139
18.19,199.03,15.353,100.036,-0.0024807
18.24,199.53,15.353,100.035,-0.0025364
18.29,200.03,15.353,100.033,-0.0027614
18.34,200.53,15.353,100.032,-0.0026664
18.38,201.031,15.352,100.031,-0.0027278
18.43,201.531,15.352,100.029,-0.0026058
18.49,202.031,15.352,100.028,-0.0026821
18.54,202.531,15.352,100.027,-0.0027584
18.58,203.031,15.352,100.026,-0.0028663
18.64,203.531,15.351,100.024,-0.0021586
18.69,204.031,15.351,100.023,-0.0023433
18.74,204.531,15.351,100.022,-0.0026909
18.79,205.031,15.351,100.021,-0.0026990
18.84,205.531,15.351,100.019,-0.0023499
18.89,206.031,15.351,100.018,-0.0028367
18.94,206.532,15.35,100.017,-0.0025190
18.99,207.032,15.35,100.015,-0.0027522
19.04,207.532,15.35,100.014,-0.0026488
19.09,208.032,15.35,100.013,-0.0028814
19.14,208.532,15.349,100.011,-0.0028533
19.19,209.032,15.349,100.01,-0.0031195
19.24,209.532,15.349,100.008,-0.0029434
19.29,210.032,15.349,100.007,-0.0028545
19.34,210.532,15.349,100.006,-0.0027159
19.39,211.032,15.348,100.004,-0.0031221
19.44,211.532,15.348,100.003,-0.0030654
19.49,212.033,15.348,100.001,-0.0030658
19.54,212.533,15.348,100,-0.0028336
19.59,213.033,15.348,99.998,-0.0030448
19.64,213.533,15.347,99.997,-0.0032075
19.69,214.033,15.347,99.995,-0.0025992
19.74,214.533,15.347,99.994,-0.0031731
19.79,215.033,15.347,99.992,-0.0025618
19.84,215.533,15.346,99.991,-0.0032030
19.89,216.033,15.346,99.989,-0.0032157
19.94,216.533,15.346,99.988,-0.0031178
19.99,217.033,15.346,99.986,-0.0030248
20.04,217.533,15.345,99.985,-0.0029339
20.09,218.034,15.345,99.983,-0.0027658
20.14,218.534,15.345,99.982,-0.0031672
20.19,219.034,15.345,99.98,-0.0029997
20.24,219.534,15.345,99.979,-0.0033526
20.29,220.034,15.344,99.977,-0.0031978
20.34,220.534,15.344,99.976,-0.0026562
20.39,221.034,15.344,99.974,-0.0028468
20.44,221.534,15.344,99.973,-0.0032997
20.49,222.034,15.343,99.971,-0.0033071
20.54,222.534,15.343,99.969,-0.0034442
20.59,223.034,15.343,99.967,-0.0033901
20.64,223.535,15.343,99.966,-0.0033337
20.69,224.035,15.342,99.964,-0.0031462
20.74,224.535,15.342,99.963,-0.0032989
20.79,225.035,15.342,99.961,-0.0032065
20.84,225.535,15.342,99.959,-0.0031481
20.89,226.035,15.341,99.958,-0.0031308
20.94,226.535,15.341,99.956,-0.0031317
20.99,227.035,15.341,99.955,-0.0029839
21.04,227.535,15.341,99.953,-0.0031966
21.09,228.035,15.34,99.951,-0.0035672
21.14,228.535,15.34,99.95,-0.0034035
21.19,229.036,15.34,99.948,-0.0035714
21.24,229.536,15.339,99.946,-0.0036022
21.29,230.036,15.339,99.945,-0.0032931
21.34,230.536,15.339,99.943,-0.0032727
21.39,231.036,15.339,99.941,-0.0034389
21.44,231.536,15.338,99.94,-0.0032760
21.49,232.036,15.338,99.938,-0.0035179
21.54,232.536,15.338,99.936,-0.0033696
21.59,233.036,15.338,99.934,-0.0034622
21.64,233.536,15.337,99.933,-0.0029458
21.69,234.036,15.337,99.931,-0.0031940
21.74,234.537,15.337,99.929,-0.0029808
21.79,235.037,15.337,99.928,-0.0031646
21.84,235.537,15.336,99.926,-0.0033947
21.89,236.037,15.336,99.924,-0.0035865
21.94,236.537,15.336,99.923,-0.0034597
21.99,237.037,15.336,99.921,-0.0036505
22.04,237.537,15.335,99.919,-0.0035682
22.09,238.037,15.335,99.917,-0.0031368
22.14,238.537,15.335,99.916,-0.0037223
22.19,239.037,15.335,99.914,-0.0034541
22.24,239.537,15.334,99.912,-0.0036613
22.29,240.038,15.334,99.91,-0.0032275
22.34,240.538,15.334,99.909,-0.0032816
22.39,241.038,15.333,99.907,-0.0035105
22.44,241.538,15.333,99.905,-0.0033990
22.49,242.038,15.333,99.903,-0.0032277
22.54,242.538,15.333,99.902,-0.0036638
22.59,243.038,15.332,99.9,-0.0030620
22.64,243.538,15.332,99.898,-0.0035605
22.69,244.038,15.332,99.896,-0.0037127
22.74,244.538,15.332,99.894,-0.0040054
22.79,245.038,15.331,99.893,-0.0033827
22.84,245.538,15.331,99.891,-0.0036546
22.89,246.039,15.331,99.889,-0.0039567
22.94,246.539,15.33,99.887,-0.0037452
22.99,247.039,15.33,99.885,-0.0036076
23.04,247.539,15.33,99.883,-0.0036014
23.09,248.039,15.33,99.882,-0.0036184
23.14,248.539,15.329,99.88,-0.0037929
23.19,249.039,15.329,99.878,-0.0035906
23.24,249.539,15.329,99.876,-0.0034615
23.29,250.039,15.328,99.874,-0.0037897
23.34,250.539,15.328,99.873,-0.0033923
23.39,251.039,15.328,99.871,-0.0037539
23.44,251.54,15.328,99.869,-0.0035183
23.49,252.04,15.327,99.867,-0.0031136
23.54,252.54,15.327,99.866,-0.0035041
23.59,253.04,15.327,99.864,-0.0035849
23.64,253.54,15.327,99.862,-0.0034938
23.69,254.04,15.326,99.86,-0.0033233
23.74,254.54,15.326,99.858,-0.0034830
23.79,255.04,15.326,99.857,-0.0036553
23.84,255.54,15.325,99.855,-0.0033477
23.89,256.04,15.325,99.853,-0.0036114
23.94,256.54,15.325,99.851,-0.0039967
23.99,257.041,15.325,99.849,-0.0035968
24.04,257.541,15.324,99.848,-0.0036720
24.09,258.041,15.324,99.846,-0.0035826
24.14,258.541,15.324,99.844,-0.0038976
24.19,259.041,15.324,99.842,-0.0033271
24.24,259.541,15.323,99.84,-0.0037636
24.29,260.041,15.323,99.838,-0.0036993
24.34,260.541,15.323,99.837,-0.0036683
24.39,261.041,15.322,99.835,-0.0037173
24.44,261.541,15.322,99.833,-0.0032128
24.49,262.041,15.322,99.831,-0.0037204
24.54,262.542,15.322,99.83,-0.0038109
24.59,263.042,15.321,99.828,-0.0032157
24.64,263.542,15.321,99.826,-0.0034926
24.69,264.042,15.321,99.824,-0.0036303
24.74,264.542,15.32,99.822,-0.0035794
24.79,265.042,15.32,99.821,-0.0036239
24.84,265.542,15.32,99.819,-0.0030068
24.89,266.042,15.32,99.817,-0.0032080
24.94,266.542,15.319,99.816,-0.0036650
24.99,267.042,15.319,99.814,-0.0035166
25.04,267.542,15.319,99.812,-0.0036136
25.09,268.043,15.319,99.811,-0.0029127
25.14,268.543,15.318,99.809,-0.0032063
25.19,269.043,15.318,99.807,-0.0030874
25.24,269.543,15.318,99.805,-0.0034830
25.29,270.043,15.318,99.804,-0.0038039
25.34,270.543,15.317,99.802,-0.0038182
25.39,271.043,15.317,99.8,-0.0035747
25.44,271.543,15.317,99.798,-0.0035308
25.49,272.043,15.316,99.796,-0.0038142
25.54,272.543,15.316,99.794,-0.0036239
25.59,273.043,15.316,99.792,-0.0037069
25.64,273.543,15.316,99.79,-0.0038991
25.69,274.044,15.315,99.789,-0.0037756
25.74,274.544,15.315,99.787,-0.0033028
25.79,275.044,15.315,99.785,-0.0034014
25.84,275.544,15.314,99.783,-0.0032081
25.89,276.044,15.314,99.781,-0.0034830
25.94,276.544,15.314,99.78,-0.0033948
25.99,277.044,15.314,99.778,-0.0032051
26.04,277.544,15.313,99.776,-0.0037467
26.09,278.044,15.313,99.774,-0.0037989
26.14,278.544,15.313,99.773,-0.0035629
26.19,279.044,15.313,99.771,-0.0032985
26.24,279.545,15.312,99.769,-0.0034072
26.29,280.045,15.312,99.767,-0.0034852
26.34,280.545,15.312,99.765,-0.0039740
26.39,281.045,15.311,99.764,-0.0037693
26.44,281.545,15.311,99.762,-0.0033498
26.49,282.045,15.311,99.76,-0.0033174
26.54,282.545,15.311,99.758,-0.0035539
26.59,283.045,15.31,99.756,-0.0036172
26.64,283.545,15.31,99.754,-0.0036731
26.69,284.045,15.31,99.753,-0.0034595
26.74,284.545,15.309,99.751,-0.0035767
26.79,285.046,15.309,99.749,-0.0038004
26.84,285.546,15.309,99.747,-0.0033870
26.89,286.046,15.309,99.745,-0.0031057
26.94,286.546,15.308,99.743,-0.0037374
26.99,287.046,15.308,99.742,-0.0037361
27.04,287.546,15.308,99.74,-0.0038703
27.09,288.046,15.308,99.738,-0.0040654
27.14,288.546,15.307,99.736,-0.0034767
27.19,289.046,15.307,99.734,-0.0035701
27.24,289.546,15.307,99.732,-0.0039799
27.29,290.046,15.306,99.731,-0.0039819
27.31,290.547,15.306,99.73,-0.0036210
27.31,291.047,15.306,99.73,-0.0036210
27.31,291.547,15.306,99.73,-0.0036210
27.31,292.047,15.306,99.73,-0.0036210
27.31,292.547,15.306,99.73,-0.0036210
27.31,293.047,15.306,99.73,-0.0036210
27.31,293.547,15.306,99.73,-0.0036210
27.31,294.047,15.306,99.73,-0.0036210
27.31,294.547,15.306,99.73,-0.0036210
27.31,295.047,15.306,99.73,-0.0036210
27.31,295.547,15.306,99.73,-0.0036210
27.31,296.048,15.306,99.73,-0.0036210
27.31,296.548,15.306,99.73,-0.0036210
27.31,297.048,15.306,99.73,-0.0036210
27.31,297.548,15.306,99.73,-0.0036210
27.31,298.048,15.306,99.73,-0.0036210
27.31,298.548,15.306,99.73,-0.0036210
27.31,299.048,15.306,99.73,-0.0036210
27.31,299.548,15.306,99.73,-0.0036210
27.31,300.048,15.306,99.73,-0.0036210
27.31,300.548,15.306,99.73,-0.0036210
27.31,301.048,15.306,99.73,-0.0036210
27.31,301.548,15.306,99.73,-0.0036210
27.31,302.049,15.306,99.73,-0.0036210
27.31,302.549,15.306,99.73,-0.0036210
27.31,303.049,15.306,99.73,-0.0036210
27.31,303.549,15.306,99.73,-0.0036210
27.31,304.049,15.306,99.73,-0.0036210
27.31,304.549,15.306,99.73,-0.0036210
27.31,305.049,15.306,99.73,-0.0036210
27.31,305.549,15.306,99.73,-0.0036210
27.31,306.049,15.306,99.73,-0.0036210
27.31,306.549,15.306,99.73,-0.0036210
27.31,307.049,15.306,99.73,-0.0036210
27.31,307.55,15.306,99.73,-0.0036210
27.31,308.05,15.306,99.73,-0.0036210
27.31,308.55,15.306,99.73,-0.0036210
27.31,309.05,15.306,99.73,-0.0036210
27.31,309.55,15.306,99.73,-0.0036210
27.31,310.05,15.306,99.73,-0.0036210
27.31,310.55,15.306,99.73,-0.0036210
27.31,311.05,15.306,99.73,-0.0036210
27.31,311.55,15.306,99.73,-0.0036210
27.31,312.05,15.306,99.73,-0.0036210
27.31,312.55,15.306,99.73,-0.0036210
27.31,313.051,15.306,99.73,-0.0036210
27.31,313.551,15.306,99.73,-0.0036210
27.31,314.051,15.306,99.73,-0.0036210
27.31,314.551,15.306,99.73,-0.0036210
27.31,315.051,15.306,99.73,-0.0036210
27.31,315.551,15.306,99.73,-0.0036210
27.31,316.051,15.306,99.73,-0.0036210
27.31,316.551,15.306,99.73,-0.0036210
27.31,317.051,15.306,99.73,-0.0036210
27.31,317.551,15.306,99.73,-0.0036210
27.31,318.051,15.306,99.73,-0.0036210
27.31,318.552,15.306,99.73,-0.0036210
27.31,319.052,15.306,99.73,-0.0036210
27.31,319.552,15.306,99.73,-0.0036210
27.31,320.052,15.306,99.73,-0.0036210
27.31,320.552,15.306,99.73,-0.0036210
27.31,321.052,15.306,99.73,-0.0036210
27.31,321.552,15.306,99.73,-0.0036210
27.31,322.052,15.306,99.73,-0.0036210
27.31,322.552,15.306,99.73,-0.0036210
27.31,323.052,15.306,99.73,-0.0036210
27.31,323.552,15.306,99.73,-0.0036210
27.31,324.053,15.306,99.73,-0.0036210
27.31,324.553,15.306,99.73,-0.0036210
27.31,325.053,15.306,99.73,-0.0036210
27.31,325.553,15.306,99.73,-0.0036210
27.31,326.053,15.306,99.73,-0.0036210
27.31,326.553,15.306,99.73,-0.0036210
27.31,327.053,15.306,99.73,-0.0036210
27.31,327.553,15.306,99.73,-0.0036210
27.31,328.053,15.306,99.73,-0.0036210
27.31,328.553,15.306,99.73,-0.0036210
27.31,329.053,15.306,99.73,-0.0036210
27.31,329.553,15.306,99.73,-0.0036210
27.31,330.054,15.306,99.73,-0.0036210
27.31,330.554,15.306,99.73,-0.0036210
27.31,331.054,15.306,99.73,-0.0036210
27.31,331.554,15.306,99.73,-0.0036210
27.31,332.054,15.306,99.73,-0.0036210
27.31,332.554,15.306,99.73,-0.0036210
27.31,333.054,15.306,99.73,-0.0036210
27.31,333.554,15.306,99.73,-0.0036210
27.31,334.054,15.306,99.73,-0.0036210
27.31,334.554,15.306,99.73,-0.0036210
27.31,335.054,15.306,99.73,-0.0036210
27.31,335.555,15.306,99.73,-0.0036210
27.31,336.055,15.306,99.73,-0.0036210
27.31,336.555,15.306,99.73,-0.0036210
27.31,337.055,15.306,99.73,-0.0036210
27.31,337.555,15.306,99.73,-0.0036210
27.31,338.055,15.306,99.73,-0.0036210
27.31,338.555,15.306,99.73,-0.0036210
27.31,339.055,15.306,99.73,-0.0036210
27.31,339.555,15.306,99.73,-0.0036210
27.31,340.055,15.306,99.73,-0.0036210
27.31,340.555,15.306,99.73,-0.0036210
27.31,341.056,15.306,99.73,-0.0036210
27.31,341.556,15.306,99.73,-0.0036210
27.31,342.056,15.306,99.73,-0.0036210
27.31,342.556,15.306,99.73,-0.0036210
27.31,343.056,15.306,99.73,-0.0036210
27.31,343.556,15.306,99.73,-0.0036210
27.31,344.056,15.306,99.73,-0.0036210
27.31,344.556,15.306,99.73,-0.0036210
27.31,345.056,15.306,99.73,-0.0036210
27.31,345.556,15.306,99.73,-0.0036210
27.31,346.056,15.306,99.73,-0.0036210
27.31,346.557,15.306,99.73,-0.0036210
27.31,347.057,15.306,99.73,-0.0036210
27.31,347.557,15.306,99.73,-0.0036210
27.31,348.057,15.306,99.73,-0.0036210
27.31,348.557,15.306,99.73,-0.0036210
27.31,349.057,15.306,99.73,-0.0036210
27.31,349.557,15.306,99.73,-0.0036210
27.31,350.057,15.306,99.73,-0.0036210
27.31,350.557,15.306,99.73,-0.0036210
27.31,351.057,15.306,99.73,-0.0036210
27.31,351.557,15.306,99.73,-0.0036210
27.31,352.058,15.306,99.73,-0.0036210
27.31,352.558,15.306,99.73,-0.0036210
27.31,353.058,15.306,99.73,-0.0036210
27.31,353.558,15.306,99.73,-0.0036210
27.31,354.058,15.306,99.73,-0.0036210
27.31,354.558,15.306,99.73,-0.0036210
27.31,355.058,15.306,99.73,-0.0036210
27.31,355.558,15.306,99.73,-0.0036210
27.31,356.058,15.306,99.73,-0.0036210
27.31,356.558,15.306,99.73,-0.0036210
27.31,357.058,15.306,99.73,-0.0036210
27.31,357.558,15.306,99.73,-0.0036210
27.31,358.059,15.306,99.73,-0.0036210
27.31,358.559,15.306,99.73,-0.0036210
27.31,359.059,15.306,99.73,-0.0036210
27.31,359.559,15.306,99.73,-0.0036210
27.31,360.059,15.306,99.73,-0.0036210
27.31,360.559,15.306,99.73,-0.0036210
27.31,361.059,15.306,99.73,-0.0036210
27.31,361.559,15.306,99.73,-0.0036210
27.31,362.059,15.306,99.73,-0.0036210
27.31,362.559,15.306,99.73,-0.0036210
27.31,363.059,15.306,99.73,-0.0036210
27.31,363.56,15.306,99.73,-0.0036210
27.31,364.06,15.306,99.73,-0.0036210
27.31,364.56,15.306,99.73,-0.0036210
27.31,365.06,15.306,99.73,-0.0036210
27.31,365.56,15.306,99.73,-0.0036210
27.31,366.06,15.306,99.73,-0.0036210
27.31,366.56,15.306,99.73,-0.0036210
27.31,367.06,15.306,99.73,-0.0036210
27.31,367.56,15.306,99.73,-0.0036210
27.31,368.06,15.306,99.73,-0.0036210
27.31,368.56,15.306,99.73,-0.0036210
27.31,369.061,15.306,99.73,-0.0036210
27.31,369.561,15.306,99.73,-0.0036210
27.31,370.061,15.306,99.73,-0.0036210
27.31,370.561,15.306,99.73,-0.0036210
27.31,371.061,15.306,99.73,-0.0036210
27.31,371.561,15.306,99.73,-0.0036210
27.31,372.061,15.306,99.73,-0.0036210
27.31,372.561,15.306,99.73,-0.0036210
27.31,373.061,15.306,99.73,-0.0036210
27.31,373.561,15.306,99.73,-0.0036210
27.31,374.061,15.306,99.73,-0.0036210
27.31,374.562,15.306,99.73,-0.0036210
27.31,375.062,15.306,99.73,-0.0036210
27.31,375.562,15.306,99.73,-0.0036210
27.31,376.062,15.306,99.73,-0.0036210
27.31,376.562,15.306,99.73,-0.0036210
27.31,377.062,15.306,99.73,-0.0036210
27.31,377.562,15.306,99.73,-0.0036210
27.31,378.062,15.306,99.73,-0.0036210
27.31,378.562,15.306,99.73,-0.0036210
27.31,379.062,15.306,99.73,-0.0036210
27.31,379.562,15.306,99.73,-0.0036210
27.31,380.063,15.306,99.73,-0.0036210
27.31,380.563,15.306,99.73,-0.0036210
27.31,381.063,15.306,99.73,-0.0036210
27.31,381.563,15.306,99.73,-0.0036210
27.31,382.063,15.306,99.73,-0.0036210
27.31,382.563,15.306,99.73,-0.0036210
27.31,383.063,15.306,99.73,-0.0036210
27.31,383.563,15.306,99.73,-0.0036210
27.31,384.063,15.306,99.73,-0.0036210
27.31,384.563,15.306,99.73,-0.0036210
27.31,385.063,15.306,99.73,-0.0036210
27.31,385.563,15.306,99.73,-0.0036210
27.31,386.064,15.306,99.73,-0.0036210
27.31,386.564,15.306,99.73,-0.0036210
27.31,387.064,15.306,99.73,-0.0036210
27.31,387.564,15.306,99.73,-0.0036210
27.31,388.064,15.306,99.73,-0.0036210
27.31,388.564,15.306,99.73,-0.0036210
27.31,389.064,15.306,99.73,-0.0036210
27.31,389.564,15.306,99.73,-0.0036210
27.31,390.064,15.306,99.73,-0.0036210
27.31,390.564,15.306,99.73,-0.0036210
27.31,391.064,15.306,99.73,-0.0036210
27.31,391.565,15.306,99.73,-0.0036210
27.31,392.065,15.306,99.73,-0.0036210
27.31,392.565,15.306,99.73,-0.0036210
27.31,393.065,15.306,99.73,-0.0036210
27.31,393.565,15.306,99.73,-0.0036210
27.31,394.065,15.306,99.73,-0.0036210
27.31,394.565,15.306,99.73,-0.0036210
27.31,395.065,15.306,99.73,-0.0036210
27.31,395.565,15.306,99.73,-0.0036210
27.31,396.065,15.306,99.73,-0.0036210
27.31,396.565,15.306,99.73,-0.0036210
27.31,397.066,15.306,99.73,-0.0036210
27.31,397.566,15.306,99.73,-0.0036210
27.31,398.066,15.306,99.73,-0.0036210
27.31,398.566,15.306,99.73,-0.0036210
27.31,399.066,15.306,99.73,-0.0036210
27.31,399.566,15.306,99.73,-0.0036210
27.31,400.066,15.306,99.73,-0.0036210
27.31,400.566,15.306,99.73,-0.0036210
27.31,401.066,15.306,99.73,-0.0036210
27.31,401.566,15.306,99.73,-0.0036210
27.31,402.066,15.306,99.73,-0.0036210
27.31,402.567,15.306,99.73,-0.0036210
27.31,403.067,15.306,99.73,-0.0036210
27.31,403.567,15.306,99.73,-0.0036210
27.31,404.067,15.306,99.73,-0.0036210
27.31,404.567,15.306,99.73,-0.0036210
27.31,405.067,15.306,99.73,-0.0036210
27.31,405.567,15.306,99.73,-0.0036210
27.31,406.067,15.306,99.73,-0.0036210
27.31,406.567,15.306,99.73,-0.0036210
27.31,407.067,15.306,99.73,-0.0036210
27.31,407.567,15.306,99.73,-0.0036210
27.31,408.068,15.306,99.73,-0.0036210
27.31,408.568,15.306,99.73,-0.0036210
27.31,409.068,15.306,99.73,-0.0036210
27.31,409.568,15.306,99.73,-0.0036210
27.31,410.068,15.306,99.73,-0.0036210
27.31,410.568,15.306,99.73,-0.0036210
27.31,411.068,15.306,99.73,-0.0036210
27.31,411.568,15.306,99.73,-0.0036210
27.31,412.068,15.306,99.73,-0.0036210
27.31,412.568,15.306,99.73,-0.0036210
27.31,413.068,15.306,99.73,-0.0036210
27.31,413.568,15.306,99.73,-0.0036210
27.31,414.069,15.306,99.73,-0.0036210
27.31,414.569,15.306,99.73,-0.0036210
27.31,415.069,15.306,99.73,-0.0036210
27.31,415.569,15.306,99.73,-0.0036210
27.31,416.069,15.306,99.73,-0.0036210
27.31,416.569,15.306,99.73,-0.0036210
27.31,417.069,15.306,99.73,-0.0036210
27.31,417.569,15.306,99.73,-0.0036210
27.31,418.069,15.306,99.73,-0.0036210
27.31,418.569,15.306,99.73,-0.0036210
27.31,419.069,15.306,99.73,-0.0036210
27.31,419.57,15.306,99.73,-0.0036210
27.31,420.07,15.306,99.73,-0.0036210
27.31,420.57,15.306,99.73,-0.0036210
27.31,421.07,15.306,99.73,-0.0036210
27.31,421.57,15.306,99.73,-0.0036210
27.31,422.07,15.306,99.73,-0.0036210
27.31,422.57,15.306,99.73,-0.0036210
27.31,423.07,15.306,99.73,-0.0036210
27.31,423.57,15.306,99.73,-0.0036210
27.31,424.07,15.306,99.73,-0.0036210
27.31,424.57,15.306,99.73,-0.0036210
27.31,425.071,15.306,99.73,-0.0036210
27.31,425.571,15.306,99.73,-0.0036210
27.31,426.071,15.306,99.73,-0.0036210
27.31,426.571,15.306,99.73,-0.0036210
27.31,427.071,15.306,99.73,-0.0036210
27.31,427.571,15.306,99.73,-0.0036210
27.31,428.071,15.306,99.73,-0.0036210
27.31,428.571,15.306,99.73,-0.0036210
27.31,429.071,15.306,99.73,-0.0036210
27.31,429.571,15.306,99.73,-0.0036210
27.31,430.071,15.306,99.73,-0.0036210
27.31,430.572,15.306,99.73,-0.0036210
27.31,431.072,15.306,99.73,-0.0036210
27.31,431.572,15.306,99.73,-0.0036210
27.31,432.072,15.306,99.73,-0.0036210
27.31,432.572,15.306,99.73,-0.0036210
27.31,433.072,15.306,99.73,-0.0036210
27.31,433.572,15.306,99.73,-0.0036210
27.31,434.072,15.306,99.73,-0.0036210
27.31,434.572,15.306,99.73,-0.0036210
27.31,435.072,15.306,99.73,-0.0036210
27.31,435.572,15.306,99.73,-0.0036210
27.31,436.073,15.306,99.73,-0.0036210
27.31,436.573,15.306,99.73,-0.0036210
27.31,437.073,15.306,99.73,-0.0036210
27.31,437.573,15.306,99.73,-0.0036210
27.31,438.073,15.306,99.73,-0.0036210
27.31,438.573,15.306,99.73,-0.0036210
27.31,439.073,15.306,99.73,-0.0036210
27.31,439.573,15.306,99.73,-0.0036210
27.31,440.073,15.306,99.73,-0.0036210
27.31,440.573,15.306,99.73,-0.0036210
27.31,441.073,15.306,99.73,-0.0036210
27.31,441.573,15.306,99.73,-0.0036210
27.31,442.074,15.306,99.73,-0.0036210
27.31,442.574,15.306,99.73,-0.0036210
27.31,443.074,15.306,99.73,-0.0036210
27.31,443.574,15.306,99.73,-0.0036210
27.31,444.074,15.306,99.73,-0.0036210
27.31,444.574,15.306,99.73,-0.0036210
27.31,445.074,15.306,99.73,-0.0036210
27.31,445.574,15.306,99.73,-0.0036210
27.31,446.074,15.306,99.73,-0.0036210
27.31,446.574,15.306,99.73,-0.0036210
27.31,447.074,15.306,99.73,-0.0036210
27.31,447.575,15.306,99.73,-0.0036210
27.31,448.075,15.306,99.73,-0.0036210
27.31,448.575,15.306,99.73,-0.0036210
27.31,449.075,15.306,99.73,-0.0036210
27.31,449.575,15.306,99.73,-0.0036210
27.31,450.075,15.306,99.73,-0.0036210
27.31,450.575,15.306,99.73,-0.0036210
27.31,451.075,15.306,99.73,-0.0036210
27.31,451.575,15.306,99.73,-0.0036210
27.31,452.075,15.306,99.73,-0.0036210
27.31,452.575,15.306,99.73,-0.0036210
27.31,453.076,15.306,99.73,-0.0036210
27.31,453.576,15.306,99.73,-0.0036210
27.31,454.076,15.306,99.73,-0.0036210
27.31,454.576,15.306,99.73,-0.0036210
27.31,455.076,15.306,99.73,-0.0036210
27.31,455.576,15.306,99.73,-0.0036210
27.31,456.076,15.306,99.73,-0.0036210
27.31,456.576,15.306,99.73,-0.0036210
27.31,457.076,15.306,99.73,-0.0036210
27.31,457.576,15.306,99.73,-0.0036210
27.31,458.076,15.306,99.73,-0.0036210
27.31,458.577,15.306,99.73,-0.0036210
27.31,459.077,15.306,99.73,-0.0036210
27.31,459.577,15.306,99.73,-0.0036210
27.31,460.077,15.306,99.73,-0.0036210
27.31,460.577,15.306,99.73,-0.0036210
27.31,461.077,15.306,99.73,-0.0036210
27.31,461.577,15.306,99.73,-0.0036210
27.31,462.077,15.306,99.73,-0.0036210
27.31,462.577,15.306,99.73,-0.0036210
27.31,463.077,15.306,99.73,-0.0036210
27.31,463.577,15.306,99.73,-0.0036210
27.31,464.078,15.306,99.73,-0.0036210
27.31,464.578,15.306,99.73,-0.0036210
27.31,465.078,15.306,99.73,-0.0036210
27.31,465.578,15.306,99.73,-0.0036210
27.31,466.078,15.306,99.73,-0.0036210
27.31,466.578,15.306,99.73,-0.0036210
27.31,467.078,15.306,99.73,-0.0036210
27.31,467.578,15.306,99.73,-0.0036210
27.31,468.078,15.306,99.73,-0.0036210
27.31,468.578,15.306,99.73,-0.0036210
27.31,469.078,15.306,99.73,-0.0036210
27.31,469.578,15.306,99.73,-0.0036210
27.31,470.079,15.306,99.73,-0.0036210
27.31,470.579,15.306,99.73,-0.0036210
27.31,471.079,15.306,99.73,-0.0036210
27.31,471.579,15.306,99.73,-0.0036210
27.31,472.079,15.306,99.73,-0.0036210
27.31,472.579,15.306,99.73,-0.0036210
27.31,473.079,15.306,99.73,-0.0036210
27.31,473.579,15.306,99.73,-0.0036210
27.31,474.079,15.306,99.73,-0.0036210
27.31,474.579,15.306,99.73,-0.0036210
27.31,475.079,15.306,99.73,-0.0036210
27.31,475.58,15.306,99.73,-0.0036210
27.31,476.08,15.306,99.73,-0.0036210
27.31,476.58,15.306,99.73,-0.0036210
27.31,477.08,15.306,99.73,-0.0036210
27.31,477.58,15.306,99.73,-0.0036210
27.31,478.08,15.306,99.73,-0.0036210
27.31,478.58,15.306,99.73,-0.0036210
27.31,479.08,15.306,99.73,-0.0036210
27.31,479.58,15.306,99.73,-0.0036210
27.31,480.08,15.306,99.73,-0.0036210
27.31,480.58,15.306,99.73,-0.0036210
27.31,481.081,15.306,99.73,-0.0036210
27.31,481.581,15.306,99.73,-0.0036210
27.31,482.081,15.306,99.73,-0.0036210
27.31,482.581,15.306,99.73,-0.0036210
27.31,483.081,15.306,99.73,-0.0036210
27.31,483.581,15.306,99.73,-0.0036210
27.31,484.081,15.306,99.73,-0.0036210
27.31,484.581,15.306,99.73,-0.0036210
27.31,485.081,15.306,99.73,-0.0036210
27.31,485.581,15.306,99.73,-0.0036210
27.31,486.081,15.306,99.73,-0.0036210
27.31,486.582,15.306,99.73,-0.0036210
27.31,487.082,15.306,99.73,-0.0036210
27.31,487.582,15.306,99.73,-0.0036210
27.31,488.082,15.306,99.73,-0.0036210
27.31,488.582,15.306,99.73,-0.0036210
27.31,489.082,15.306,99.73,-0.0036210
27.31,489.582,15.306,99.73,-0.0036210
27.31,490.082,15.306,99.73,-0.0036210
27.31,490.582,15.306,99.73,-0.0036210
27.31,491.082,15.306,99.73,-0.0036210
27.31,491.582,15.306,99.73,-0.0036210
27.31,492.083,15.306,99.73,-0.0036210
27.31,492.583,15.306,99.73,-0.0036210
27.31,493.083,15.306,99.73,-0.0036210
27.31,493.583,15.306,99.73,-0.0036210
27.31,494.083,15.306,99.73,-0.0036210
27.31,494.583,15.306,99.73,-0.0036210
27.31,495.083,15.306,99.73,-0.0036210
27.31,495.583,15.306,99.73,-0.0036210
27.31,496.083,15.306,99.73,-0.0036210
27.31,496.583,15.306,99.73,-0.0036210
27.31,497.083,15.306,99.73,-0.0036210
27.31,497.583,15.306,99.73,-0.0036210
27.31,498.084,15.306,99.73,-0.0036210
27.31,498.584,15.306,99.73,-0.0036210
27.31,499.084,15.306,99.73,-0.0036210
27.31,499.584,15.306,99.73,-0.0036210
27.31,500.084,15.306,99.73,-0.0036210
27.31,500.584,15.306,99.73,-0.0036210
27.31,501.084,15.306,99.73,-0.0036210
27.31,501.584,15.306,99.73,-0.0036210
27.31,502.084,15.306,99.73,-0.0036210
27.31,502.584,15.306,99.73,-0.0036210
27.31,503.084,15.306,99.73,-0.0036210
27.31,503.585,15.306,99.73,-0.0036210
27.31,504.085,15.306,99.73,-0.0036210
27.31,504.585,15.306,99.73,-0.0036210
27.31,505.085,15.306,99.73,-0.0036210
27.31,505.585,15.306,99.73,-0.0036210
27.31,506.085,15.306,99.73,-0.0036210
27.31,506.585,15.306,99.73,-0.0036210
27.31,507.085,15.306,99.73,-0.0036210
27.31,507.585,15.306,99.73,-0.0036210
27.31,508.085,15.306,99.73,-0.0036210
27.31,508.585,15.306,99.73,-0.0036210
27.31,509.086,15.306,99.73,-0.0036210
27.31,509.586,15.306,99.73,-0.0036210
27.31,510.086,15.306,99.73,-0.0036210
27.31,510.586,15.306,99.73,-0.0036210
27.31,511.086,15.306,99.73,-0.0036210
27.31,511.586,15.306,99.73,-0.0036210
27.31,512.086,15.306,99.73,-0.0036210
27.31,512.586,15.306,99.73,-0.0036210
27.31,513.086,15.306,99.73,-0.0036210
27.31,513.586,15.306,99.73,-0.0036210
27.31,514.086,15.306,99.73,-0.0036210
27.31,514.587,15.306,99.73,-0.0036210
27.31,515.087,15.306,99.73,-0.0036210
27.31,515.587,15.306,99.73,-0.0036210
27.31,516.087,15.306,99.73,-0.0036210
27.31,516.587,15.306,99.73,-0.0036210
27.31,517.087,15.306,99.73,-0.0036210
27.31,517.587,15.306,99.73,-0.0036210
27.31,518.087,15.306,99.73,-0.0036210
27.31,518.587,15.306,99.73,-0.0036210
27.31,519.087,15.306,99.73,-0.0036210
27.31,519.587,15.306,99.73,-0.0036210
27.31,520.088,15.306,99.73,-0.0036210
27.31,520.588,15.306,99.73,-0.0036210
27.31,521.088,15.306,99.73,-0.0036210
27.31,521.588,15.306,99.73,-0.0036210
27.31,522.088,15.306,99.73,-0.0036210
27.31,522.588,15.306,99.73,-0.0036210
27.31,523.088,15.306,99.73,-0.0036210
27.31,523.588,15.306,99.73,-0.0036210
27.31,524.088,15.306,99.73,-0.0036210
27.31,524.588,15.306,99.73,-0.0036210
27.31,525.088,15.306,99.73,-0.0036210
27.31,525.588,15.306,99.73,-0.0036210
27.31,526.089,15.306,99.73,-0.0036210
27.31,526.589,15.306,99.73,-0.0036210
27.31,527.089,15.306,99.73,-0.0036210
27.31,527.589,15.306,99.73,-0.0036210
27.31,528.089,15.306,99.73,-0.0036210
27.31,528.589,15.306,99.73,-0.0036210
27.31,529.089,15.306,99.73,-0.0036210
27.31,529.589,15.306,99.73,-0.0036210
27.31,530.089,15.306,99.73,-0.0036210
27.31,530.589,15.306,99.73,-0.0036210
27.31,531.089,15.306,99.73,-0.0036210
27.31,531.59,15.306,99.73,-0.0036210
27.31,532.09,15.306,99.73,-0.0036210
27.31,532.59,15.306,99.73,-0.0036210
27.31,533.09,15.306,99.73,-0.0036210
27.31,533.59,15.306,99.73,-0.0036210
27.31,534.09,15.306,99.73,-0.0036210
27.31,534.59,15.306,99.73,-0.0036210
27.31,535.09,15.306,99.73,-0.0036210
27.31,535.59,15.306,99.73,-0.0036210
27.31,536.09,15.306,99.73,-0.0036210
27.31,536.59,15.306,99.73,-0.0036210
27.31,537.091,15.306,99.73,-0.0036210
27.31,537.591,15.306,99.73,-0.0036210
27.31,538.091,15.306,99.73,-0.0036210
27.31,538.591,15.306,99.73,-0.0036210
27.31,539.091,15.306,99.73,-0.0036210
27.31,539.591,15.306,99.73,-0.0036210
27.31,540.091,15.306,99.73,-0.0036210
27.31,540.591,15.306,99.73,-0.0036210
27.31,541.091,15.306,99.73,-0.0036210
27.31,541.591,15.306,99.73,-0.0036210
27.31,542.091,15.306,99.73,-0.0036210
27.31,542.592,15.306,99.73,-0.0036210
27.31,543.092,15.306,99.73,-0.0036210
27.31,543.592,15.306,99.73,-0.0036210
27.31,544.092,15.306,99.73,-0.0036210
27.31,544.592,15.306,99.73,-0.0036210
27.31,545.092,15.306,99.73,-0.0036210
27.31,545.592,15.306,99.73,-0.0036210
27.31,546.092,15.306,99.73,-0.0036210
27.31,546.592,15.306,99.73,-0.0036210
27.31,547.092,15.306,99.73,-0.0036210
27.31,547.592,15.306,99.73,-0.0036210
27.31,548.093,15.306,99.73,-0.0036210
27.31,548.593,15.306,99.73,-0.0036210
27.31,549.093,15.306,99.73,-0.0036210
27.31,549.593,15.306,99.73,-0.0036210
27.31,550.093,15.306,99.73,-0.0036210
27.31,550.593,15.306,99.73,-0.0036210
27.31,551.093,15.306,99.73,-0.0036210
27.31,551.593,15.306,99.73,-0.0036210
27.31,552.093,15.306,99.73,-0.0036210
27.31,552.593,15.306,99.73,-0.0036210
27.31,553.093,15.306,99.73,-0.0036210
27.31,553.593,15.306,99.73,-0.0036210
27.31,554.094,15.306,99.73,-0.0036210
27.31,554.594,15.306,99.73,-0.0036210
27.31,555.094,15.306,99.73,-0.0036210
27.31,555.594,15.306,99.73,-0.0036210
27.31,556.094,15.306,99.73,-0.0036210
27.31,556.594,15.306,99.73,-0.0036210
27.31,557.094,15.306,99.73,-0.0036210
27.31,557.594,15.306,99.73,-0.0036210
27.31,558.094,15.306,99.73,-0.0036210
27.31,558.594,15.306,99.73,-0.0036210
27.31,559.094,15.306,99.73,-0.0036210
27.31,559.595,15.306,99.73,-0.0036210
27.31,560.095,15.306,99.73,-0.0036210
27.31,560.595,15.306,99.73,-0.0036210
27.31,561.095,15.306,99.73,-0.0036210
27.31,561.595,15.306,99.73,-0.0036210
27.31,562.095,15.306,99.73,-0.0036210
27.31,562.595,15.306,99.73,-0.0036210
27.31,563.095,15.306,99.73,-0.0036210
27.31,563.595,15.306,99.73,-0.0036210
27.31,564.095,15.306,99.73,-0.0036210
27.31,564.595,15.306,99.73,-0.0036210
27.31,565.096,15.306,99.73,-0.0036210
27.31,565.596,15.306,99.73,-0.0036210
27.31,566.096,15.306,99.73,-0.0036210
27.31,566.596,15.306,99.73,-0.0036210
27.31,567.096,15.306,99.73,-0.0036210
27.31,567.596,15.306,99.73,-0.0036210
27.31,568.096,15.306,99.73,-0.0036210
27.31,568.596,15.306,99.73,-0.0036210
27.31,569.096,15.306,99.73,-0.0036210
27.31,569.596,15.306,99.73,-0.0036210
27.31,570.096,15.306,99.73,-0.0036210
27.31,570.597,15.306,99.73,-0.0036210
27.31,571.097,15.306,99.73,-0.0036210
27.31,571.597,15.306,99.73,-0.0036210
27.31,572.097,15.306,99.73,-0.0036210
27.31,572.597,15.306,99.73,-0.0036210
27.31,573.097,15.306,99.73,-0.0036210
27.31,573.597,15.306,99.73,-0.0036210
27.31,574.097,15.306,99.73,-0.0036210
27.31,574.597,15.306,99.73,-0.0036210
27.31,575.097,15.306,99.73,-0.0036210
27.31,575.597,15.306,99.73,-0.0036210
27.31,576.098,15.306,99.73,-0.0036210
27.31,576.598,15.306,99.73,-0.0036210
27.31,577.098,15.306,99.73,-0.0036210
27.31,577.598,15.306,99.73,-0.0036210
27.31,578.098,15.306,99.73,-0.0036210
27.31,578.598,15.306,99.73,-0.0036210
27.31,579.098,15.306,99.73,-0.0036210
27.31,579.598,15.306,99.73,-0.0036210
27.31,580.098,15.306,99.73,-0.0036210
27.31,580.598,15.306,99.73,-0.0036210
27.31,581.098,15.306,99.73,-0.0036210
27.31,581.598,15.306,99.73,-0.0036210
27.31,582.099,15.306,99.73,-0.0036210
27.31,582.599,15.306,99.73,-0.0036210
27.31,583.099,15.306,99.73,-0.0036210
27.31,583.599,15.306,99.73,-0.0036210
27.31,584.099,15.306,99.73,-0.0036210
27.31,584.599,15.306,99.73,-0.0036210
27.31,585.099,15.306,99.73,-0.0036210
27.31,585.599,15.306,99.73,-0.0036210
27.31,586.099,15.306,99.73,-0.0036210
27.31,586.599,15.306,99.73,-0.0036210
27.31,587.099,15.306,99.73,-0.0036210
27.31,587.6,15.306,99.73,-0.0036210
27.31,588.1,15.306,99.73,-0.0036210
27.31,588.6,15.306,99.73,-0.0036210
27.31,589.1,15.306,99.73,-0.0036210
27.31,589.6,15.306,99.73,-0.0036210
27.31,590,15.306,99.73,-0.0036210