File: R/rHDPE_App/app/www/Output/TGA/Condensed_Data/Resin8_0__1.csv
0.4300000,30,19.915,100.008,0.0050251
0.5300000,30.5001,19.916,100.012,0.0117464
0.6200000,31.0002,19.917,100.015,0.0057148
0.6900000,31.5003,19.917,100.017,0.0087359
0.7600000,32.0004,19.917,100.019,0.0004365
0.8300000,32.5004,19.918,100.02,0.0052324
0.8900000,33.0005,19.918,100.021,0.0035625
0.9500000,33.5006,19.918,100.022,0.0009516
1.02,34.0007,19.918,100.023,0.0012077
1.07,34.5008,19.918,100.023,0.0045382
1.13,35.0009,19.918,100.024,0.0035700
1.19,35.501,19.919,100.025,-0.0010538
1.25,36.0011,19.919,100.026,0.0004691
1.31,36.5012,19.919,100.026,0.0019617
1.36,37.0013,19.919,100.026,-0.0001025
1.42,37.5013,19.919,100.027,0.0032538
1.47,38.0014,19.919,100.027,-0.0017181
1.53,38.5015,19.919,100.028,0.0026605
1.58,39.0016,19.919,100.028,-0.0001998
1.63,39.5017,19.919,100.029,0.0015411
1.69,40.0018,19.919,100.029,0.0005443
1.74,40.5019,19.92,100.03,0.0002467
1.8,41.002,19.92,100.03,0.0014259
1.85,41.5021,19.92,100.031,-0.0000981
1.91,42.0021,19.92,100.031,0.0019567
1.96,42.5022,19.92,100.032,0.0006346
2.01,43.0023,19.92,100.032,-0.0002436
2.07,43.5024,19.92,100.032,0.0019443
2.12,44.0025,19.92,100.033,0.0007278
2.17,44.5026,19.92,100.033,-0.0000484
2.22,45.0027,19.92,100.034,0.0012091
2.28,45.5028,19.92,100.034,0.0014001
2.33,46.0029,19.921,100.034,0.0000482
2.38,46.5029,19.921,100.035,0.0007215
2.43,47.003,19.921,100.035,0.0007684
2.49,47.5031,19.921,100.036,0.0004796
2.54,48.0032,19.921,100.036,0.0009573
2.59,48.5033,19.921,100.037,0.0009083
2.64,49.0034,19.921,100.037,0.0008112
2.69,49.5035,19.921,100.037,0.0015247
2.75,50.0036,19.921,100.038,0.0006183
2.8,50.5037,19.921,100.038,0.0003326
2.85,51.0038,19.921,100.038,0.0011383
2.9,51.5038,19.921,100.039,0.0013254
2.96,52.0039,19.922,100.039,0.0006622
3.01,52.504,19.922,100.04,0.0006613
3.06,53.0041,19.922,100.04,0.0011793
3.11,53.5042,19.922,100.041,0.0009895
3.16,54.0043,19.922,100.041,0.0007527
3.21,54.5044,19.922,100.042,0.0014101
3.26,55.0045,19.922,100.042,0.0005637
3.31,55.5046,19.922,100.042,-0.0000470
3.37,56.0046,19.922,100.042,0.0012193
3.42,56.5047,19.922,100.043,0.0013119
3.47,57.0048,19.922,100.043,0.0006551
3.52,57.5049,19.922,100.044,0.0007949
3.57,58.005,19.922,100.044,0.0004202
3.62,58.5051,19.922,100.044,0.0000934
3.67,59.0052,19.923,100.045,0.0002333
3.72,59.5053,19.923,100.045,0.0010713
3.78,60.0054,19.923,100.045,0.0006518
3.83,60.5054,19.923,100.045,0.0006517
3.88,61.0055,19.923,100.046,0.0012555
3.93,61.5056,19.923,100.046,0.0005576
3.98,62.0057,19.923,100.046,0.0000000
4.03,62.5058,19.923,100.047,0.0011120
4.08,63.0059,19.923,100.047,0.0007415
4.13,63.506,19.923,100.047,-0.0000928
4.18,64.0061,19.923,100.047,0.0006953
4.23,64.5062,19.923,100.048,0.0007872
4.28,65.0063,19.923,100.048,0.0000926
4.33,65.5063,19.923,100.048,0.0002311
4.38,66.0064,19.923,100.049,0.0009240
4.43,66.5065,19.923,100.049,0.0008317
4.48,67.0066,19.923,100.049,0.0001847
4.53,67.5067,19.923,100.049,0.0009233
4.58,68.0068,19.924,100.05,0.0008303
4.64,68.5069,19.924,100.05,0.0000461
4.69,69.007,19.924,100.05,0.0009677
4.74,69.5071,19.924,100.05,0.0010593
4.79,70.0071,19.924,100.051,0.0005064
4.84,70.5072,19.924,100.051,0.0008280
4.89,71.0073,19.924,100.051,0.0010111
4.94,71.5074,19.924,100.052,0.0003218
4.99,72.0075,19.924,100.052,0.0002298
5.04,72.5076,19.924,100.052,0.0007807
5.09,73.0077,19.924,100.052,0.0003675
5.14,73.5078,19.924,100.052,0.0000459
5.19,74.0079,19.924,100.052,0.0010558
5.24,74.5079,19.924,100.053,0.0009638
5.29,75.008,19.924,100.053,0.0003672
5.34,75.5081,19.924,100.053,0.0006425
5.39,76.0082,19.924,100.054,0.0007341
5.44,76.5083,19.924,100.054,0.0000917
5.49,77.0084,19.924,100.054,0.0006420
5.54,77.5085,19.924,100.054,0.0005502
5.59,78.0086,19.924,100.054,0.0006417
5.64,78.5087,19.924,100.054,0.0001375
5.69,79.0088,19.925,100.055,0.0006874
5.74,79.5088,19.925,100.055,0.0003664
5.79,80.0089,19.925,100.055,0.0001832
5.84,80.509,19.925,100.055,0.0002290
5.89,81.0091,19.925,100.055,0.0003665
5.94,81.5092,19.925,100.055,0.0000916
5.99,82.0093,19.925,100.055,0.0004122
6.04,82.5094,19.925,100.056,0.0003660
6.09,83.0095,19.925,100.056,0.0002289
6.14,83.5096,19.925,100.056,-0.0003664
6.19,84.0096,19.925,100.056,0.0007327
6.24,84.5097,19.925,100.056,0.0001374
6.29,85.0098,19.925,100.056,-0.0003663
6.34,85.5099,19.925,100.056,0.0000915
6.39,86.01,19.925,100.056,0.0005491
6.44,86.5101,19.925,100.056,-0.0000458
6.49,87.0102,19.925,100.056,-0.0000916
6.54,87.5103,19.925,100.056,0.0003663
6.59,88.0104,19.925,100.056,-0.0000000
6.64,88.5104,19.925,100.056,0.0000915
6.69,89.0105,19.925,100.057,0.0000457
6.74,89.5106,19.925,100.057,-0.0000000
6.79,90.0107,19.925,100.057,-0.0003202
6.84,90.5108,19.925,100.057,0.0000915
6.89,91.0109,19.925,100.057,-0.0000457
6.94,91.511,19.925,100.057,-0.0002287
6.99,92.0111,19.925,100.057,-0.0004117
7.04,92.5112,19.925,100.057,0.0000000
7.09,93.0113,19.925,100.057,-0.0002745
7.14,93.5113,19.925,100.057,-0.0001830
7.19,94.0114,19.925,100.057,0.0002743
7.24,94.5115,19.925,100.057,-0.0002743
7.29,95.0116,19.925,100.057,-0.0005490
7.34,95.5117,19.925,100.057,0.0000915
7.39,96.0118,19.925,100.057,0.0000000
7.44,96.5119,19.925,100.057,-0.0000915
7.49,97.012,19.925,100.056,-0.0001372
7.54,97.5121,19.925,100.057,0.0004114
7.59,98.0121,19.925,100.057,-0.0001372
7.64,98.5122,19.925,100.057,-0.0005033
7.69,99.0123,19.925,100.056,0.0000000
7.74,99.5124,19.925,100.056,-0.0001374
7.79,100.013,19.925,100.056,-0.0003204
7.84,100.513,19.925,100.056,0.0000000
7.89,101.013,19.925,100.056,0.0005495
7.94,101.513,19.925,100.056,0.0000000
7.99,102.013,19.925,100.056,0.0001373
8.04,102.513,19.925,100.056,0.0001373
8.09,103.013,19.925,100.056,-0.0000916
8.14,103.513,19.925,100.056,-0.0006410
8.19,104.013,19.925,100.056,0.0000915
8.24,104.513,19.925,100.056,-0.0004116
8.29,105.013,19.925,100.056,-0.0002745
8.34,105.513,19.925,100.056,0.0000457
8.39,106.014,19.925,100.056,0.0000000
8.44,106.514,19.925,100.056,-0.0003659
8.49,107.014,19.925,100.056,0.0000000
8.54,107.514,19.925,100.056,-0.0000915
8.59,108.014,19.925,100.055,-0.0005957
8.64,108.514,19.925,100.055,-0.0002291
8.69,109.014,19.925,100.055,0.0002749
8.74,109.514,19.925,100.055,-0.0002291
8.79,110.014,19.925,100.055,-0.0001831
8.84,110.514,19.925,100.055,0.0000914
8.89,111.014,19.925,100.055,-0.0002286
8.94,111.515,19.925,100.055,-0.0006398
8.99,112.015,19.924,100.054,-0.0001371
9.04,112.515,19.924,100.054,-0.0004119
9.09,113.015,19.924,100.054,-0.0004581
9.14,113.515,19.924,100.054,-0.0003664
9.19,114.015,19.924,100.054,-0.0000458
9.24,114.515,19.924,100.054,-0.0005493
9.29,115.015,19.924,100.053,-0.0006869
9.34,115.515,19.924,100.053,-0.0006410
9.39,116.015,19.924,100.053,-0.0005955
9.44,116.515,19.924,100.053,-0.0007795
9.49,117.016,19.924,100.053,-0.0005040
9.54,117.516,19.924,100.052,-0.0005043
9.59,118.016,19.924,100.052,-0.0005045
9.64,118.516,19.924,100.052,-0.0002292
9.69,119.016,19.924,100.052,-0.0002290
9.74,119.516,19.924,100.052,-0.0006416
9.79,120.016,19.924,100.052,-0.0009624
9.84,120.516,19.924,100.051,-0.0000918
9.89,121.016,19.924,100.051,-0.0004125
9.94,121.516,19.924,100.051,-0.0009621
9.99,122.016,19.924,100.051,-0.0000917
10.04,122.517,19.924,100.051,-0.0005038
10.09,123.017,19.924,100.05,-0.0006877
10.14,123.517,19.924,100.05,-0.0006870
10.19,124.017,19.924,100.05,-0.0003662
10.24,124.517,19.924,100.05,-0.0005961
10.29,125.017,19.923,100.049,-0.0001835
10.34,125.517,19.923,100.049,-0.0000917
10.39,126.017,19.923,100.049,-0.0003671
10.44,126.517,19.923,100.049,-0.0010552
10.49,127.017,19.923,100.049,-0.0005041
10.54,127.517,19.923,100.048,-0.0005500
10.59,128.018,19.923,100.048,-0.0011000
10.64,128.518,19.923,100.048,-0.0007330
10.69,129.018,19.923,100.048,0.0000000
10.74,129.518,19.923,100.048,-0.0005951
10.79,130.018,19.923,100.047,-0.0006399
10.84,130.518,19.923,100.047,-0.0000914
10.89,131.018,19.923,100.047,-0.0006399
10.94,131.518,19.923,100.047,-0.0007319
10.99,132.018,19.923,100.046,-0.0002744
11.04,132.518,19.923,100.046,-0.0004116
11.09,133.018,19.923,100.046,-0.0007329
11.14,133.518,19.923,100.046,-0.0004588
11.19,134.019,19.923,100.045,-0.0004590
11.24,134.519,19.923,100.045,-0.0007808
11.29,135.019,19.923,100.045,-0.0004128
11.34,135.519,19.923,100.045,-0.0004123
11.39,136.019,19.922,100.044,-0.0003660
11.44,136.519,19.922,100.044,-0.0013250
11.49,137.019,19.922,100.043,-0.0005477
11.54,137.519,19.922,100.043,-0.0008672
11.59,138.019,19.922,100.042,-0.0018276
11.64,138.519,19.922,100.042,-0.0013250
11.69,139.019,19.922,100.041,-0.0016897
11.74,139.52,19.922,100.04,-0.0021447
11.79,140.02,19.921,100.039,-0.0026447
11.84,140.52,19.921,100.038,-0.0024557
11.89,141.02,19.921,100.036,-0.0027258
11.94,141.52,19.921,100.035,-0.0036775
11.99,142.02,19.92,100.033,-0.0028577
12.04,142.52,19.92,100.032,-0.0029465
12.09,143.02,19.92,100.031,-0.0031312
12.14,143.52,19.919,100.029,-0.0023119
12.19,144.02,19.919,100.028,-0.0023108
12.24,144.52,19.919,100.027,-0.0024971
12.29,145.021,19.919,100.026,-0.0023658
12.33,145.521,19.919,100.025,-0.0021858
12.38,146.021,19.918,100.023,-0.0019649
12.43,146.521,19.918,100.022,-0.0021978
12.48,147.021,19.918,100.021,-0.0016491
12.53,147.521,19.918,100.021,-0.0016051
12.58,148.021,19.918,100.02,-0.0021115
12.63,148.521,19.917,100.019,-0.0019302
12.69,149.021,19.917,100.018,-0.0015179
12.74,149.521,19.917,100.017,-0.0018437
12.79,150.021,19.917,100.016,-0.0015662
12.84,150.522,19.917,100.016,-0.0013814
12.89,151.022,19.917,100.015,-0.0013806
12.94,151.522,19.916,100.014,-0.0015656
12.99,152.022,19.916,100.014,-0.0008276
13.04,152.522,19.916,100.013,-0.0010572
13.09,153.022,19.916,100.012,-0.0013793
13.14,153.522,19.916,100.012,-0.0010577
13.19,154.022,19.916,100.011,-0.0006440
13.24,154.522,19.916,100.011,-0.0008738
13.29,155.022,19.916,100.01,-0.0009649
13.34,155.522,19.916,100.01,-0.0009181
13.39,156.023,19.915,100.009,-0.0012856
13.44,156.523,19.915,100.009,-0.0007805
13.49,157.023,19.915,100.008,-0.0005050
13.54,157.523,19.915,100.008,-0.0009639
13.59,158.023,19.915,100.007,-0.0014699
13.64,158.523,19.915,100.007,-0.0010563
13.69,159.023,19.915,100.006,-0.0007800
13.74,159.523,19.915,100.006,-0.0012844
13.79,160.023,19.915,100.005,-0.0011919
13.84,160.523,19.915,100.005,-0.0010090
13.89,161.023,19.915,100.004,-0.0011467
13.94,161.523,19.914,100.004,-0.0010560
13.99,162.024,19.914,100.003,-0.0006422
14.04,162.524,19.914,100.003,-0.0011921
14.09,163.024,19.914,100.002,-0.0015138
14.14,163.524,19.914,100.002,-0.0006874
14.19,164.024,19.914,100.001,-0.0009167
14.24,164.524,19.914,100.001,-0.0011468
14.29,165.024,19.914,100,-0.0008703
14.34,165.524,19.914,100,-0.0005954
14.39,166.024,19.914,99.999,-0.0014668
14.44,166.524,19.913,99.999,-0.0007791
14.49,167.024,19.913,99.998,-0.0009163
14.54,167.525,19.913,99.998,-0.0011001
14.59,168.025,19.913,99.997,-0.0016976
14.64,168.525,19.913,99.997,-0.0006871
14.69,169.025,19.913,99.996,-0.0012838
14.74,169.525,19.913,99.995,-0.0013768
14.79,170.025,19.913,99.995,-0.0010543
14.84,170.525,19.913,99.994,-0.0010070
14.89,171.025,19.912,99.994,-0.0011456
14.94,171.525,19.912,99.993,-0.0009621
14.99,172.025,19.912,99.993,-0.0008248
15.04,172.525,19.912,99.992,-0.0010076
15.09,173.026,19.912,99.992,-0.0011453
15.14,173.526,19.912,99.991,-0.0012821
15.19,174.026,19.912,99.99,-0.0011454
15.24,174.526,19.912,99.99,-0.0012376
15.29,175.026,19.911,99.989,-0.0011469
15.34,175.526,19.911,99.989,-0.0011927
15.39,176.026,19.911,99.988,-0.0015608
15.44,176.526,19.911,99.987,-0.0013297
15.49,177.026,19.911,99.987,-0.0010536
15.54,177.526,19.911,99.986,-0.0013740
15.59,178.026,19.911,99.985,-0.0015110
15.64,178.527,19.911,99.985,-0.0010979
15.69,179.027,19.911,99.984,-0.0011894
15.74,179.527,19.91,99.984,-0.0013723
15.79,180.027,19.91,99.983,-0.0010979
15.84,180.527,19.91,99.982,-0.0010525
15.89,181.027,19.91,99.982,-0.0015117
15.94,181.527,19.91,99.981,-0.0011916
15.99,182.027,19.91,99.98,-0.0013745
16.04,182.527,19.91,99.98,-0.0014661
16.09,183.027,19.909,99.979,-0.0016051
16.14,183.527,19.909,99.978,-0.0012368
16.19,184.028,19.909,99.978,-0.0017862
16.24,184.528,19.909,99.977,-0.0015564
16.29,185.028,19.909,99.976,-0.0011435
16.34,185.528,19.909,99.975,-0.0014639
16.39,186.028,19.909,99.975,-0.0013711
16.44,186.528,19.908,99.974,-0.0010525
16.49,187.028,19.908,99.973,-0.0014189
16.54,187.528,19.908,99.972,-0.0017865
16.59,188.028,19.908,99.971,-0.0016034
16.64,188.528,19.908,99.971,-0.0016483
16.69,189.028,19.908,99.97,-0.0017423
16.74,189.528,19.907,99.969,-0.0015134
16.79,190.029,19.907,99.968,-0.0016058
16.84,190.529,19.907,99.967,-0.0016063
16.89,191.029,19.907,99.967,-0.0022059
16.94,191.529,19.907,99.966,-0.0013777
16.99,192.029,19.907,99.965,-0.0013745
17.04,192.529,19.906,99.964,-0.0019243
17.09,193.029,19.906,99.963,-0.0014643
17.14,193.529,19.906,99.962,-0.0015585
17.19,194.029,19.906,99.961,-0.0018369
17.24,194.529,19.906,99.961,-0.0014657
17.29,195.029,19.906,99.96,-0.0015554
17.34,195.53,19.905,99.959,-0.0016035
17.39,196.03,19.905,99.958,-0.0019707
17.44,196.53,19.905,99.957,-0.0017861
17.49,197.03,19.905,99.956,-0.0021542
17.54,197.53,19.905,99.955,-0.0021536
17.59,198.03,19.905,99.954,-0.0021560
17.64,198.53,19.904,99.953,-0.0017890
17.69,199.03,19.904,99.953,-0.0018328
17.74,199.53,19.904,99.952,-0.0018344
17.79,200.03,19.904,99.951,-0.0014648
17.84,200.53,19.904,99.95,-0.0021974
17.89,201.031,19.903,99.949,-0.0019213
17.94,201.531,19.903,99.948,-0.0013242
17.99,202.031,19.903,99.947,-0.0015539
18.04,202.531,19.903,99.946,-0.0024270
18.09,203.031,19.903,99.945,-0.0024312
18.14,203.531,19.903,99.944,-0.0018332
18.19,204.031,19.902,99.943,-0.0020174
18.24,204.531,19.902,99.942,-0.0023394
18.29,205.031,19.902,99.941,-0.0018305
18.34,205.531,19.902,99.94,-0.0016923
18.39,206.031,19.902,99.939,-0.0021043
18.44,206.532,19.901,99.938,-0.0016468
18.49,207.032,19.901,99.937,-0.0016946
18.54,207.532,19.901,99.936,-0.0022008
18.59,208.032,19.901,99.935,-0.0017409
18.64,208.532,19.901,99.934,-0.0019716
18.7,209.032,19.9,99.933,-0.0021107
18.75,209.532,19.9,99.932,-0.0019718
18.8,210.032,19.9,99.931,-0.0019255
18.85,210.532,19.9,99.93,-0.0020623
18.9,211.032,19.9,99.929,-0.0025669
18.95,211.532,19.899,99.928,-0.0019679
19,212.033,19.899,99.927,-0.0021037
19.05,212.533,19.899,99.926,-0.0024256
19.1,213.033,19.899,99.925,-0.0017865
19.15,213.533,19.899,99.924,-0.0019234
19.2,214.033,19.898,99.923,-0.0025234
19.25,214.533,19.898,99.922,-0.0022004
19.3,215.033,19.898,99.921,-0.0020152
19.35,215.533,19.898,99.92,-0.0026135
19.4,216.033,19.897,99.918,-0.0027538
19.45,216.533,19.897,99.917,-0.0018362
19.5,217.033,19.897,99.916,-0.0022518
19.55,217.533,19.897,99.915,-0.0029444
19.6,218.034,19.896,99.914,-0.0020667
19.65,218.534,19.896,99.913,-0.0020128
19.7,219.034,19.896,99.912,-0.0021948
19.75,219.534,19.896,99.911,-0.0023792
19.8,220.034,19.896,99.91,-0.0021072
19.85,220.534,19.895,99.908,-0.0026147
19.9,221.034,19.895,99.907,-0.0024753
19.95,221.534,19.895,99.906,-0.0016937
20,222.034,19.895,99.905,-0.0023800
20.05,222.534,19.894,99.904,-0.0026118
20.1,223.034,19.894,99.903,-0.0024279
20.15,223.535,19.894,99.902,-0.0021998
20.2,224.035,19.894,99.901,-0.0024760
20.25,224.535,19.894,99.899,-0.0021085
20.3,225.035,19.893,99.898,-0.0023379
20.35,225.535,19.893,99.897,-0.0027523
20.4,226.035,19.893,99.896,-0.0027057
20.45,226.535,19.893,99.894,-0.0020616
20.5,227.035,19.892,99.893,-0.0022915
20.55,227.535,19.892,99.892,-0.0027992
20.6,228.035,19.892,99.891,-0.0021503
20.65,228.535,19.892,99.89,-0.0024267
20.7,229.036,19.891,99.889,-0.0026544
20.75,229.536,19.891,99.887,-0.0024234
20.8,230.036,19.891,99.886,-0.0021037
20.85,230.536,19.891,99.885,-0.0023337
20.9,231.036,19.89,99.884,-0.0024278
20.95,231.536,19.89,99.883,-0.0021082
21,232.036,19.89,99.882,-0.0027515
21.05,232.536,19.89,99.88,-0.0027059
21.1,233.036,19.89,99.879,-0.0022442
21.15,233.536,19.889,99.878,-0.0024707
21.2,234.036,19.889,99.877,-0.0027480
21.25,234.537,19.889,99.875,-0.0023360
21.3,235.037,19.889,99.874,-0.0020593
21.35,235.537,19.888,99.873,-0.0029298
21.4,236.037,19.888,99.872,-0.0029770
21.45,236.537,19.888,99.87,-0.0024256
21.5,237.037,19.888,99.869,-0.0026106
21.55,237.537,19.887,99.868,-0.0025229
21.6,238.037,19.887,99.867,-0.0019240
21.65,238.537,19.887,99.865,-0.0024762
21.7,239.037,19.887,99.864,-0.0025229
21.75,239.537,19.886,99.863,-0.0022957
21.8,240.038,19.886,99.862,-0.0023394
21.85,240.538,19.886,99.86,-0.0027069
21.9,241.038,19.886,99.859,-0.0023799
21.95,241.538,19.885,99.858,-0.0021481
22,242.038,19.885,99.856,-0.0028814
22.05,242.538,19.885,99.855,-0.0031599
22.1,243.038,19.885,99.854,-0.0023399
22.15,243.538,19.884,99.852,-0.0026618
22.2,244.038,19.884,99.851,-0.0026111
22.25,244.538,19.884,99.85,-0.0026053
22.3,245.038,19.883,99.849,-0.0025092
22.35,245.538,19.883,99.847,-0.0030145
22.4,246.039,19.883,99.846,-0.0024669
22.45,246.539,19.883,99.845,-0.0024730
22.5,247.039,19.882,99.843,-0.0025623
22.55,247.539,19.882,99.842,-0.0028362
22.6,248.039,19.882,99.841,-0.0021030
22.65,248.539,19.882,99.839,-0.0026106
22.7,249.039,19.881,99.838,-0.0030712
22.75,249.539,19.881,99.837,-0.0024312
22.8,250.039,19.881,99.835,-0.0025662
22.85,250.539,19.881,99.834,-0.0029309
22.9,251.039,19.88,99.833,-0.0027969
22.95,251.54,19.88,99.832,-0.0024776
23,252.04,19.88,99.83,-0.0031727
23.05,252.54,19.88,99.829,-0.0029412
23.1,253.04,19.879,99.827,-0.0023381
23.15,253.54,19.879,99.826,-0.0027485
23.2,254.04,19.879,99.825,-0.0028859
23.25,254.54,19.878,99.823,-0.0025144
23.3,255.04,19.878,99.822,-0.0024668
23.35,255.54,19.878,99.82,-0.0031121
23.4,256.04,19.878,99.819,-0.0025197
23.45,256.54,19.877,99.818,-0.0025216
23.5,257.041,19.877,99.816,-0.0029341
23.55,257.541,19.877,99.815,-0.0028377
23.6,258.041,19.877,99.814,-0.0025128
23.65,258.541,19.876,99.812,-0.0029330
23.7,259.041,19.876,99.811,-0.0028450
23.75,259.541,19.876,99.809,-0.0026108
23.8,260.041,19.875,99.808,-0.0028362
23.85,260.541,19.875,99.807,-0.0030694
23.9,261.041,19.875,99.805,-0.0027498
23.95,261.541,19.875,99.804,-0.0027070
24,262.041,19.874,99.802,-0.0034850
24.05,262.542,19.874,99.801,-0.0028873
24.1,263.042,19.874,99.8,-0.0026065
24.15,263.542,19.873,99.798,-0.0034372
24.2,264.042,19.873,99.796,-0.0032551
24.25,264.542,19.873,99.795,-0.0027534
24.3,265.042,19.873,99.794,-0.0025650
24.35,265.542,19.872,99.792,-0.0029293
24.4,266.042,19.872,99.791,-0.0028336
24.45,266.542,19.872,99.789,-0.0028783
24.5,267.042,19.871,99.788,-0.0032075
24.55,267.542,19.871,99.786,-0.0026109
24.6,268.043,19.871,99.785,-0.0028820
24.65,268.543,19.87,99.783,-0.0034322
24.7,269.043,19.87,99.782,-0.0033914
24.75,269.543,19.87,99.78,-0.0027473
24.8,270.043,19.87,99.779,-0.0033009
24.85,270.543,19.869,99.777,-0.0032092
24.9,271.043,19.869,99.775,-0.0029320
24.95,271.543,19.869,99.774,-0.0030230
25,272.043,19.868,99.772,-0.0037122
25.05,272.543,19.868,99.771,-0.0027483
25.1,273.043,19.868,99.769,-0.0027457
25.15,273.543,19.867,99.768,-0.0030208
25.2,274.044,19.867,99.766,-0.0031623
25.25,274.544,19.867,99.765,-0.0027920
25.3,275.044,19.866,99.763,-0.0031564
25.35,275.544,19.866,99.762,-0.0033425
25.4,276.044,19.866,99.76,-0.0028846
25.45,276.544,19.866,99.758,-0.0033467
25.5,277.044,19.865,99.757,-0.0038109
25.55,277.544,19.865,99.755,-0.0029833
25.6,278.044,19.865,99.754,-0.0033015
25.65,278.544,19.864,99.752,-0.0032509
25.7,279.044,19.864,99.75,-0.0033852
25.75,279.545,19.864,99.749,-0.0031524
25.8,280.045,19.863,99.747,-0.0036172
25.85,280.545,19.863,99.745,-0.0032587
25.9,281.045,19.863,99.744,-0.0029267
25.95,281.545,19.862,99.742,-0.0033327
26,282.045,19.862,99.741,-0.0042102
26.05,282.545,19.862,99.739,-0.0027915
26.1,283.045,19.861,99.737,-0.0029332
26.15,283.545,19.861,99.736,-0.0035827
26.2,284.045,19.861,99.734,-0.0030779
26.25,284.545,19.86,99.732,-0.0031651
26.3,285.046,19.86,99.731,-0.0033401
26.35,285.546,19.86,99.729,-0.0031011
26.4,286.046,19.859,99.727,-0.0033290
26.45,286.546,19.859,99.726,-0.0039362
26.5,287.046,19.859,99.724,-0.0038532
26.55,287.546,19.858,99.722,-0.0031193
26.6,288.046,19.858,99.72,-0.0034843
26.65,288.546,19.858,99.718,-0.0036205
26.7,289.046,19.857,99.717,-0.0034894
26.75,289.546,19.857,99.715,-0.0033457
26.8,290.046,19.857,99.713,-0.0038032
26.85,290.547,19.856,99.711,-0.0032491
26.9,291.047,19.856,99.71,-0.0035192
26.95,291.547,19.855,99.708,-0.0039835
27,292.047,19.855,99.706,-0.0038094
27.05,292.547,19.855,99.704,-0.0034818
27.1,293.047,19.854,99.702,-0.0035184
27.15,293.547,19.854,99.7,-0.0043482
27.2,294.047,19.854,99.698,-0.0038017
27.25,294.547,19.853,99.697,-0.0035302
27.3,295.047,19.853,99.695,-0.0043996
27.35,295.547,19.852,99.693,-0.0039284
27.4,296.048,19.852,99.691,-0.0037423
27.45,296.548,19.852,99.689,-0.0038885
27.5,297.048,19.851,99.686,-0.0039982
27.55,297.548,19.851,99.685,-0.0035780
27.6,298.048,19.85,99.683,-0.0038052
27.65,298.548,19.85,99.681,-0.0044142
27.7,299.048,19.85,99.679,-0.0036650
27.75,299.548,19.849,99.677,-0.0035166
27.8,300.048,19.849,99.675,-0.0041628
27.85,300.548,19.849,99.673,-0.0039413
27.9,301.048,19.848,99.671,-0.0033009
27.95,301.548,19.848,99.669,-0.0038948
28,302.049,19.847,99.667,-0.0039399
28.05,302.549,19.847,99.665,-0.0033778
28.1,303.049,19.847,99.664,-0.0040580
28.15,303.549,19.846,99.662,-0.0048015
28.2,304.049,19.846,99.659,-0.0037155
28.25,304.549,19.845,99.658,-0.0043135
28.3,305.049,19.845,99.655,-0.0046373
28.35,305.549,19.845,99.653,-0.0040404
28.4,306.049,19.844,99.651,-0.0038447
28.45,306.549,19.844,99.649,-0.0042621
28.5,307.049,19.843,99.647,-0.0045472
28.55,307.55,19.843,99.645,-0.0037642
28.6,308.05,19.843,99.643,-0.0043143
28.65,308.55,19.842,99.641,-0.0045855
28.7,309.05,19.842,99.638,-0.0042086
28.75,309.55,19.841,99.636,-0.0042048
28.81,310.05,19.841,99.634,-0.0050805
28.86,310.55,19.84,99.632,-0.0045272
28.91,311.05,19.84,99.63,-0.0040198
28.96,311.55,19.839,99.628,-0.0046219
29.01,312.05,19.839,99.625,-0.0048033
29.06,312.55,19.839,99.623,-0.0037955
29.11,313.051,19.838,99.621,-0.0043403
29.16,313.551,19.838,99.619,-0.0051702
29.21,314.051,19.837,99.616,-0.0042102
29.26,314.551,19.837,99.614,-0.0041194
29.31,315.051,19.836,99.612,-0.0050796
29.36,315.551,19.836,99.609,-0.0046687
29.41,316.051,19.835,99.607,-0.0044390
29.46,316.551,19.835,99.605,-0.0048077
29.51,317.051,19.834,99.602,-0.0048580
29.56,317.551,19.834,99.6,-0.0042148
29.61,318.051,19.834,99.598,-0.0048535
29.66,318.552,19.833,99.595,-0.0052264
29.71,319.052,19.833,99.593,-0.0044414
29.76,319.552,19.832,99.591,-0.0047126
29.81,320.052,19.832,99.588,-0.0052226
29.86,320.552,19.831,99.586,-0.0041667
29.91,321.052,19.831,99.584,-0.0038898
29.96,321.552,19.83,99.582,-0.0046254
30.01,322.052,19.83,99.579,-0.0048839
30.06,322.552,19.829,99.577,-0.0049482
30.11,323.052,19.829,99.574,-0.0052218
30.16,323.552,19.828,99.571,-0.0054006
30.21,324.053,19.828,99.569,-0.0050120
30.26,324.553,19.827,99.566,-0.0049451
30.31,325.053,19.827,99.563,-0.0053444
30.36,325.553,19.826,99.561,-0.0054268
30.41,326.053,19.826,99.558,-0.0054695
30.46,326.553,19.825,99.555,-0.0057461
30.51,327.053,19.825,99.553,-0.0053872
30.56,327.553,19.824,99.55,-0.0051513
30.61,328.053,19.823,99.547,-0.0053803
30.66,328.553,19.823,99.544,-0.0057938
30.71,329.053,19.822,99.542,-0.0053376
30.76,329.553,19.822,99.539,-0.0053464
30.81,330.054,19.821,99.536,-0.0057798
30.86,330.554,19.821,99.533,-0.0057724
30.91,331.054,19.82,99.53,-0.0055484
30.96,331.554,19.82,99.528,-0.0057767
31.01,332.054,19.819,99.525,-0.0056370
31.06,332.554,19.818,99.522,-0.0053783
31.11,333.054,19.818,99.519,-0.0061020
31.16,333.554,19.817,99.516,-0.0061723
31.21,334.054,19.817,99.513,-0.0049495
31.26,334.554,19.816,99.51,-0.0057403
31.31,335.054,19.815,99.507,-0.0064620
31.36,335.555,19.815,99.504,-0.0062248
31.41,336.055,19.814,99.501,-0.0062351
31.46,336.555,19.814,99.498,-0.0067022
31.51,337.055,19.813,99.495,-0.0060059
31.56,337.555,19.812,99.492,-0.0062214
31.61,338.055,19.812,99.488,-0.0068619
31.66,338.555,19.811,99.485,-0.0062982
31.71,339.055,19.811,99.482,-0.0061961
31.76,339.555,19.81,99.479,-0.0062902
31.81,340.055,19.809,99.475,-0.0070668
31.86,340.555,19.808,99.472,-0.0063118
31.91,341.056,19.808,99.469,-0.0065597
31.96,341.556,19.807,99.466,-0.0068673
32.01,342.056,19.807,99.462,-0.0065610
32.06,342.556,19.806,99.459,-0.0065850
32.11,343.056,19.805,99.455,-0.0074312
32.16,343.556,19.804,99.452,-0.0072962
32.21,344.056,19.804,99.448,-0.0069330
32.26,344.556,19.803,99.445,-0.0070068
32.31,345.056,19.802,99.441,-0.0075896
32.36,345.556,19.802,99.437,-0.0068619
32.41,346.056,19.801,99.434,-0.0072869
32.46,346.557,19.8,99.43,-0.0074813
32.51,347.057,19.799,99.426,-0.0071049
32.56,347.557,19.799,99.423,-0.0071272
32.61,348.057,19.798,99.419,-0.0072384
32.66,348.557,19.797,99.415,-0.0070642
32.71,349.057,19.796,99.412,-0.0071337
32.76,349.557,19.796,99.408,-0.0077810
32.81,350.057,19.795,99.404,-0.0080084
32.86,350.557,19.794,99.4,-0.0075980
32.91,351.057,19.793,99.396,-0.0077767
32.96,351.557,19.793,99.392,-0.0080026
33.01,352.058,19.792,99.388,-0.0080615
33.06,352.558,19.791,99.384,-0.0083868
33.11,353.058,19.79,99.38,-0.0079431
33.16,353.558,19.789,99.376,-0.0082569
33.21,354.058,19.789,99.372,-0.0084235
33.26,354.558,19.788,99.368,-0.0082769
33.31,355.058,19.787,99.364,-0.0087294
33.36,355.558,19.786,99.359,-0.0087423
33.41,356.058,19.785,99.355,-0.0086081
33.46,356.558,19.784,99.351,-0.0085196
33.51,357.058,19.784,99.347,-0.0083563
33.56,357.558,19.783,99.342,-0.0088160
33.61,358.059,19.782,99.338,-0.0097674
33.66,358.559,19.781,99.333,-0.0085859
33.71,359.059,19.78,99.329,-0.0090951
33.76,359.559,19.779,99.325,-0.0090201
33.81,360.059,19.778,99.32,-0.0093321
33.86,360.559,19.777,99.316,-0.0090527
33.91,361.059,19.776,99.311,-0.0093287
33.96,361.559,19.775,99.306,-0.0098225
34.01,362.059,19.775,99.301,-0.0092067
34.06,362.559,19.774,99.297,-0.0091575
34.11,363.059,19.773,99.292,-0.0098720
34.16,363.56,19.772,99.287,-0.0096488
34.21,364.06,19.771,99.282,-0.0096559
34.26,364.56,19.77,99.278,-0.0102714
34.31,365.06,19.769,99.272,-0.0100824
34.36,365.56,19.768,99.268,-0.0101376
34.41,366.06,19.767,99.262,-0.0102715
34.46,366.56,19.766,99.257,-0.0098938
34.51,367.06,19.765,99.252,-0.0103480
34.56,367.56,19.764,99.247,-0.0105080
34.61,368.06,19.763,99.242,-0.0106091
34.66,368.56,19.762,99.237,-0.0104776
34.71,369.061,19.761,99.231,-0.0110744
34.76,369.561,19.76,99.226,-0.0106548
34.81,370.061,19.758,99.221,-0.0106567
34.86,370.561,19.757,99.215,-0.0111722
34.91,371.061,19.756,99.209,-0.0113304
34.96,371.561,19.755,99.204,-0.0114301
35.01,372.061,19.754,99.198,-0.0117245
35.06,372.561,19.753,99.192,-0.0118830
35.11,373.061,19.752,99.186,-0.0119725
35.16,373.561,19.75,99.18,-0.0124907
35.21,374.061,19.749,99.174,-0.0126560
35.26,374.562,19.748,99.168,-0.0132447
35.31,375.062,19.747,99.161,-0.0129286
35.36,375.562,19.745,99.155,-0.0129959
35.41,376.062,19.744,99.148,-0.0131748
35.46,376.562,19.743,99.142,-0.0134974
35.51,377.062,19.741,99.135,-0.0137237
35.56,377.562,19.74,99.128,-0.0142596
35.61,378.062,19.738,99.12,-0.0147704
35.66,378.562,19.737,99.113,-0.0148543
35.71,379.062,19.735,99.105,-0.0152751
35.76,379.562,19.734,99.098,-0.0151280
35.81,380.063,19.732,99.09,-0.0157448
35.86,380.563,19.731,99.082,-0.0158904
35.91,381.063,19.729,99.074,-0.0166362
35.96,381.563,19.728,99.066,-0.0164955
36.01,382.063,19.726,99.057,-0.0167736
36.06,382.563,19.724,99.048,-0.0176276
36.11,383.063,19.722,99.039,-0.0180209
36.16,383.563,19.721,99.03,-0.0183830
36.21,384.063,19.719,99.021,-0.0185151
36.26,384.563,19.717,99.012,-0.0194490
36.31,385.063,19.715,99.002,-0.0197549
36.36,385.563,19.713,98.992,-0.0205285
36.41,386.064,19.711,98.982,-0.0211686
36.46,386.564,19.709,98.971,-0.0213136
36.51,387.064,19.707,98.96,-0.0219499
36.56,387.564,19.704,98.949,-0.0224359
36.61,388.064,19.702,98.938,-0.0234275
36.66,388.564,19.7,98.926,-0.0238226
36.71,389.064,19.697,98.914,-0.0245421
36.76,389.564,19.695,98.901,-0.0256692
36.81,390.064,19.692,98.889,-0.0259032
36.86,390.564,19.69,98.875,-0.0261085
36.91,391.064,19.687,98.862,-0.0271580
36.96,391.565,19.684,98.848,-0.0283457
37.01,392.065,19.681,98.834,-0.0285024
37.06,392.565,19.679,98.819,-0.0296455
37.11,393.065,19.675,98.804,-0.0309292
37.16,393.565,19.672,98.789,-0.0316108
37.21,394.065,19.669,98.773,-0.0329091
37.26,394.565,19.666,98.756,-0.0329982
37.31,395.065,19.663,98.739,-0.0344733
37.36,395.565,19.659,98.721,-0.0357012
37.41,396.065,19.655,98.703,-0.0369705
37.46,396.565,19.652,98.685,-0.0382780
37.51,397.066,19.648,98.665,-0.0386839
37.56,397.566,19.644,98.645,-0.0401778
37.61,398.066,19.64,98.625,-0.0419495
37.66,398.566,19.636,98.604,-0.0427812
37.71,399.066,19.631,98.582,-0.0445055
37.76,399.566,19.627,98.56,-0.0454171
37.81,400.066,19.622,98.537,-0.0470438
37.86,400.566,19.617,98.513,-0.0485552
37.91,401.066,19.613,98.488,-0.0502924
37.96,401.566,19.607,98.463,-0.0516438
38.01,402.066,19.602,98.436,-0.0531536
38.06,402.567,19.597,98.409,-0.0577941
38.11,403.067,19.591,98.379,-0.0603528
38.16,403.567,19.585,98.348,-0.0658592
38.21,404.067,19.578,98.314,-0.0685101
38.26,404.567,19.571,98.278,-0.0724288
38.31,405.067,19.563,98.241,-0.0753436
38.36,405.567,19.555,98.201,-0.0820772
38.41,406.067,19.547,98.16,-0.0814967
38.46,406.567,19.539,98.117,-0.0848293
38.51,407.067,19.53,98.073,-0.0888910
38.56,407.567,19.521,98.026,-0.0968550
38.61,408.068,19.511,97.977,-0.0970880
38.66,408.568,19.501,97.926,-0.0988569
38.71,409.068,19.49,97.874,-0.1012460
38.76,409.568,19.48,97.821,-0.1064430
38.81,410.068,19.469,97.766,-0.1106590
38.86,410.568,19.458,97.709,-0.1127380
38.91,411.068,19.446,97.651,-0.1190280
38.96,411.568,19.434,97.591,-0.1204470
39.01,412.068,19.422,97.53,-0.1228260
39.06,412.568,19.409,97.467,-0.1272890
39.11,413.068,19.396,97.403,-0.1267640
39.16,413.568,19.383,97.337,-0.1350440
39.21,414.069,19.37,97.27,-0.1333790
39.26,414.569,19.356,97.202,-0.1375570
39.31,415.069,19.343,97.133,-0.1368370
39.36,415.569,19.328,97.061,-0.1426150
39.41,416.069,19.314,96.987,-0.1496440
39.46,416.569,19.299,96.912,-0.1543910
39.51,417.069,19.284,96.838,-0.1566330
39.56,417.569,19.269,96.76,-0.1560900
39.61,418.069,19.253,96.682,-0.1595820
39.66,418.569,19.237,96.603,-0.1629120
39.71,419.069,19.221,96.519,-0.1677820
39.76,419.57,19.204,96.436,-0.1684070
39.81,420.07,19.187,96.352,-0.1697980
39.86,420.57,19.17,96.266,-0.1750920
39.91,421.07,19.153,96.18,-0.1821510
39.96,421.57,19.135,96.091,-0.1825870
40.01,422.07,19.117,96,-0.1876260
40.06,422.57,19.099,95.907,-0.1884630
40.11,423.07,19.08,95.814,-0.1879830
40.16,423.57,19.061,95.72,-0.1936840
40.21,424.07,19.042,95.624,-0.1891480
40.26,424.57,19.023,95.528,-0.1844430
40.31,425.071,19.003,95.429,-0.2045490
40.36,425.571,18.983,95.329,-0.1993600
40.41,426.071,18.963,95.227,-0.2006120
40.46,426.571,18.942,95.122,-0.2037090
40.51,427.071,18.921,95.017,-0.2121340
40.56,427.571,18.9,94.911,-0.2133380
40.61,428.071,18.879,94.803,-0.2159800
40.66,428.571,18.857,94.696,-0.2127410
40.71,429.071,18.835,94.585,-0.2214840
40.76,429.571,18.813,94.473,-0.2279480
40.81,430.071,18.79,94.358,-0.2286900
40.86,430.572,18.766,94.235,-0.2436340
40.91,431.072,18.741,94.113,-0.2392890
40.96,431.572,18.717,93.99,-0.2455150
41.01,432.072,18.691,93.863,-0.2612560
41.06,432.572,18.666,93.732,-0.2726810
41.11,433.072,18.638,93.594,-0.2734550
41.16,433.572,18.61,93.451,-0.2852050
41.21,434.072,18.58,93.304,-0.3050820
41.26,434.572,18.549,93.149,-0.3129000
41.31,435.072,18.518,92.989,-0.3221560
41.36,435.572,18.485,92.825,-0.3275080
41.41,436.073,18.45,92.652,-0.3607500
41.46,436.573,18.414,92.471,-0.3732180
41.51,437.073,18.377,92.281,-0.4002380
41.56,437.573,18.337,92.081,-0.4156770
41.61,438.073,18.295,91.87,-0.4285280
41.66,438.573,18.251,91.65,-0.4506420
41.71,439.073,18.205,91.419,-0.4748170
41.76,439.573,18.157,91.176,-0.4890080
41.81,440.073,18.106,90.923,-0.5408570
41.86,440.573,18.052,90.653,-0.5635760
41.91,441.073,17.997,90.373,-0.5777470
41.96,441.573,17.939,90.084,-0.5849220
42.01,442.074,17.879,89.785,-0.6232110
42.06,442.574,17.817,89.47,-0.6625690
42.11,443.074,17.751,89.142,-0.6986240
42.16,443.574,17.684,88.805,-0.7148960
42.21,444.074,17.609,88.429,-0.7585680
42.26,444.574,17.532,88.038,-0.8112490
42.31,445.074,17.45,87.627,-0.8285020
42.36,445.574,17.368,87.215,-0.8497060
42.41,446.074,17.285,86.8,-0.8523910
42.46,446.574,17.2,86.371,-0.8908890
42.51,447.074,17.109,85.914,-0.9785990
42.56,447.575,17.012,85.428,-0.9993620
42.61,448.075,16.914,84.937,-1.01534
42.66,448.575,16.813,84.429,-1.08524
42.71,449.075,16.704,83.883,-1.12924
42.76,449.575,16.59,83.311,-1.18643
42.81,450.075,16.475,82.733,-1.16251
42.86,450.575,16.356,82.135,-1.28787
42.91,451.075,16.227,81.485,-1.36145
42.96,451.575,16.09,80.8,-1.36342
43.01,452.075,15.958,80.138,-1.31677
43.06,452.575,15.821,79.446,-1.47555
43.11,453.076,15.669,78.686,-1.49849
43.16,453.576,15.516,77.915,-1.60031
43.21,454.076,15.352,77.094,-1.65679
43.26,454.576,15.189,76.274,-1.656
43.31,455.076,15.016,75.405,-1.68418
43.36,455.576,14.84,74.521,-1.79252
43.41,456.076,14.651,73.571,-1.93882
43.46,456.576,14.451,72.568,-2.02883
43.51,457.076,14.248,71.55,-2.05684
43.56,457.576,14.033,70.471,-2.24932
43.61,458.076,13.802,69.311,-2.33664
43.66,458.577,13.552,68.052,-2.49931
43.71,459.077,13.299,66.784,-2.57138
43.76,459.577,13.047,65.517,-2.66644
43.81,460.077,12.77,64.125,-2.82933
43.86,460.577,12.486,62.703,-2.82481
43.91,461.077,12.192,61.225,-3.02462
43.96,461.577,11.884,59.678,-3.1097
44.01,462.077,11.572,58.112,-3.25268
44.06,462.577,11.245,56.469,-3.31312
44.11,463.077,10.905,54.76,-3.46678
44.16,463.577,10.557,53.015,-3.56029
44.21,464.078,10.189,51.166,-3.6046
44.26,464.578,9.825,49.339,-3.70445
44.31,465.078,9.449,47.448,-3.82495
44.36,465.578,9.068,45.534,-3.90195
44.41,466.078,8.675,43.564,-3.99863
44.46,466.578,8.279,41.577,-4.00801
44.51,467.078,7.876,39.553,-4.02799
44.56,467.578,7.474,37.53,-4.0459
44.61,468.078,7.065,35.478,-4.15134
44.66,468.578,6.658,33.432,-4.08288
44.71,469.078,6.25,31.385,-4.07765
44.76,469.578,5.84,29.328,-4.09366
44.81,470.079,5.432,27.277,-4.02339
44.86,470.579,5.031,25.263,-4.01541
44.91,471.079,4.649,23.348,-3.88614
44.96,471.579,4.263,21.405,-3.78794
45.01,472.079,3.884,19.505,-3.72514
45.06,472.579,3.516,17.658,-3.67924
45.11,473.079,3.167,15.901,-3.41248
45.16,473.579,2.832,14.219,-3.22349
45.21,474.079,2.519,12.651,-3.1222
45.26,474.579,2.224,11.168,-2.84577
45.31,475.079,1.95,9.793,-2.64763
45.36,475.58,1.695,8.513,-2.39123
45.41,476.08,1.472,7.392,-2.21151
45.46,476.58,1.262,6.335,-1.98577
45.51,477.08,1.073,5.39,-1.75279
45.56,477.58,0.9120000,4.578,-1.50476
45.61,478.08,0.7620000,3.825,-1.28036
45.66,478.58,0.6420000,3.223,-1.125
45.71,479.08,0.5370000,2.696,-0.8939380
45.75,479.58,0.4530000,2.274,-0.9070930
45.8,480.08,0.3820000,1.921,-0.7182900
45.85,480.58,0.3260000,1.637,-0.4525590
45.9,481.081,0.2810000,1.412,-0.3939690
45.95,481.581,0.2490000,1.25,-0.3424240
46,482.081,0.2230000,1.122,-0.2063500
46.05,482.581,0.2050000,1.029,-0.1414090
46.1,483.081,0.1920000,0.9640000,-0.1077520
46.15,483.581,0.1840000,0.9240000,-0.0699561
46.2,484.081,0.1790000,0.9000000,-0.0335297
46.25,484.581,0.1760000,0.8860000,-0.0266802
46.3,485.081,0.1740000,0.8720000,-0.0264380
46.35,485.581,0.1710000,0.8600000,-0.0242047
46.4,486.081,0.1690000,0.8480000,-0.0205579
46.45,486.582,0.1670000,0.8390000,-0.0165931
46.5,487.082,0.1660000,0.8320000,-0.0126612
46.55,487.582,0.1640000,0.8260000,-0.0106109
46.61,488.082,0.1630000,0.8210000,-0.0083730
46.66,488.582,0.1630000,0.8170000,-0.0071430
46.71,489.082,0.1620000,0.8140000,-0.0056664
46.76,489.582,0.1620000,0.8120000,-0.0040047
46.81,490.082,0.1610000,0.8100000,-0.0030345
46.86,490.582,0.1610000,0.8080000,-0.0025914
46.91,491.082,0.1610000,0.8070000,-0.0022715
46.96,491.582,0.1610000,0.8060000,-0.0018626
47.01,492.083,0.1600000,0.8050000,-0.0009672
47.06,492.583,0.1600000,0.8050000,-0.0008559
47.11,493.083,0.1600000,0.8040000,-0.0007716
47.16,493.583,0.1600000,0.8040000,-0.0005669
47.21,494.083,0.1600000,0.8040000,-0.0001706
47.26,494.583,0.1600000,0.8040000,-0.0003430
47.31,495.083,0.1600000,0.8030000,-0.0005700
47.36,495.583,0.1600000,0.8030000,-0.0002198
47.41,496.083,0.1600000,0.8030000,-0.0003479
47.46,496.583,0.1600000,0.8030000,-0.0002966
47.51,497.083,0.1600000,0.8030000,-0.0001597
47.56,497.583,0.1600000,0.8030000,-0.0003575
47.61,498.084,0.1600000,0.8030000,-0.0000111
47.66,498.584,0.1600000,0.8030000,0.0000777
47.71,499.084,0.1600000,0.8030000,-0.0001308
47.76,499.584,0.1600000,0.8030000,-0.0000409
47.81,500.084,0.1600000,0.8030000,-0.0002787
47.86,500.584,0.1600000,0.8030000,-0.0001486
47.91,501.084,0.1600000,0.8030000,0.0002351
47.96,501.584,0.1600000,0.8030000,-0.0004577
48.01,502.084,0.1600000,0.8030000,-0.0004823
48.06,502.584,0.1600000,0.8030000,-0.0000539
48.11,503.084,0.1600000,0.8030000,-0.0000820
48.16,503.585,0.1600000,0.8030000,-0.0001042
48.21,504.085,0.1600000,0.8030000,-0.0001044
48.26,504.585,0.1600000,0.8030000,-0.0000143
48.31,505.085,0.1600000,0.8030000,0.0003174
48.36,505.585,0.1600000,0.8030000,-0.0000795
48.41,506.085,0.1600000,0.8030000,0.0003401
48.46,506.585,0.1600000,0.8030000,0.0003528
48.51,507.085,0.1600000,0.8030000,0.0003207
48.56,507.585,0.1600000,0.8030000,-0.0000250
48.61,508.085,0.1600000,0.8030000,-0.0001886
48.66,508.585,0.1600000,0.8030000,0.0000888
48.71,509.086,0.1600000,0.8030000,0.0008096
48.76,509.586,0.1600000,0.8030000,0.0005763
48.81,510.086,0.1600000,0.8040000,0.0004382
48.86,510.586,0.1600000,0.8040000,-0.0002818
48.91,511.086,0.1600000,0.8040000,-0.0003023
48.96,511.586,0.1600000,0.8030000,-0.0005139
49.01,512.086,0.1600000,0.8030000,-0.0004688
49.06,512.586,0.1600000,0.8030000,-0.0002363
49.11,513.086,0.1600000,0.8030000,-0.0000892
49.16,513.586,0.1600000,0.8030000,-0.0002963
49.21,514.086,0.1600000,0.8030000,-0.0002414
49.26,514.587,0.1600000,0.8030000,-0.0004315
49.31,515.087,0.1600000,0.8030000,-0.0002848
49.36,515.587,0.1600000,0.8020000,0.0002048
49.41,516.087,0.1600000,0.8030000,0.0001503
49.46,516.587,0.1600000,0.8030000,0.0000381
49.51,517.087,0.1600000,0.8030000,0.0000712
49.56,517.587,0.1600000,0.8030000,0.0001139
49.61,518.087,0.1600000,0.8030000,0.0000265
49.66,518.587,0.1600000,0.8030000,0.0001871
49.71,519.087,0.1600000,0.8030000,0.0000987
49.76,519.587,0.1600000,0.8030000,0.0000948
49.81,520.088,0.1600000,0.8030000,0.0001824
49.86,520.588,0.1600000,0.8030000,0.0002848
49.91,521.088,0.1600000,0.8030000,0.0003027
49.96,521.588,0.1600000,0.8030000,0.0003475
50.01,522.088,0.1600000,0.8030000,0.0004385
50.06,522.588,0.1600000,0.8030000,0.0002297
50.11,523.088,0.1600000,0.8030000,-0.0003885
50.16,523.588,0.1600000,0.8030000,-0.0001268
50.21,524.088,0.1600000,0.8030000,0.0003520
50.26,524.588,0.1600000,0.8030000,0.0001860
50.31,525.088,0.1600000,0.8030000,0.0006632
50.36,525.588,0.1600000,0.8030000,-0.0000575
50.41,526.089,0.1600000,0.8030000,0.0001875
50.46,526.589,0.1600000,0.8030000,0.0003028
50.51,527.089,0.1600000,0.8030000,0.0001350
50.56,527.589,0.1600000,0.8030000,0.0002708
50.61,528.089,0.1600000,0.8030000,-0.0000223
50.66,528.589,0.1600000,0.8030000,-0.0001307
50.71,529.089,0.1600000,0.8030000,0.0001349
50.76,529.589,0.1600000,0.8030000,0.0002704
50.81,530.089,0.1600000,0.8030000,-0.0001012
50.86,530.589,0.1600000,0.8030000,0.0002557
50.91,531.089,0.1600000,0.8040000,0.0007141
50.96,531.59,0.1600000,0.8040000,0.0000172
51,532.09,0.1600000,0.8040000,-0.0006369
51.05,532.59,0.1600000,0.8040000,-0.0002033
51.1,533.09,0.1600000,0.8040000,0.0003518
51.15,533.59,0.1600000,0.8040000,0.0001565
51.21,534.09,0.1600000,0.8040000,-0.0001754
51.26,534.59,0.1600000,0.8040000,-0.0005641
51.31,535.09,0.1600000,0.8040000,-0.0002396
51.36,535.59,0.1600000,0.8040000,0.0002293
51.41,536.09,0.1600000,0.8040000,0.0001821
51.46,536.59,0.1600000,0.8040000,-0.0002586
51.51,537.091,0.1600000,0.8040000,-0.0000791
51.56,537.591,0.1600000,0.8040000,0.0000494
51.61,538.091,0.1600000,0.8040000,-0.0002955
51.66,538.591,0.1600000,0.8040000,-0.0002049
51.71,539.091,0.1600000,0.8040000,-0.0001925
51.76,539.591,0.1600000,0.8040000,-0.0002828
51.81,540.091,0.1600000,0.8040000,0.0000798
51.86,540.591,0.1600000,0.8040000,0.0001291
51.91,541.091,0.1600000,0.8040000,-0.0000663
51.96,541.591,0.1600000,0.8030000,-0.0003949
52.01,542.091,0.1600000,0.8030000,-0.0003025
52.06,542.592,0.1600000,0.8030000,0.0000977
52.11,543.092,0.1600000,0.8030000,-0.0002062
52.16,543.592,0.1600000,0.8030000,-0.0001784
52.21,544.092,0.1600000,0.8030000,-0.0001502
52.26,544.592,0.1600000,0.8030000,-0.0001631
52.31,545.092,0.1600000,0.8030000,-0.0000469
52.36,545.592,0.1600000,0.8030000,-0.0002969
52.41,546.092,0.1600000,0.8030000,-0.0002727
52.46,546.592,0.1600000,0.8030000,0.0001281
52.51,547.092,0.1600000,0.8030000,0.0001116
52.56,547.592,0.1600000,0.8030000,0.0003531
52.61,548.093,0.1600000,0.8030000,-0.0003734
52.66,548.593,0.1600000,0.8030000,-0.0003786
52.71,549.093,0.1600000,0.8030000,-0.0002928
52.76,549.593,0.1600000,0.8030000,-0.0001388
52.81,550.093,0.1600000,0.8030000,-0.0004574
52.86,550.593,0.1600000,0.8030000,-0.0003221
52.91,551.093,0.1600000,0.8030000,-0.0003169
52.96,551.593,0.1600000,0.8030000,-0.0003026
53.01,552.093,0.1600000,0.8020000,-0.0002442
53.06,552.593,0.1600000,0.8020000,-0.0004637
53.11,553.093,0.1600000,0.8020000,-0.0003624
53.16,553.593,0.1600000,0.8020000,-0.0002459
53.21,554.094,0.1600000,0.8020000,-0.0001411
53.26,554.594,0.1600000,0.8020000,-0.0004611
53.31,555.094,0.1600000,0.8020000,-0.0002396
53.36,555.594,0.1600000,0.8020000,-0.0001643
53.41,556.094,0.1600000,0.8020000,-0.0001055
53.46,556.594,0.1600000,0.8020000,-0.0002707
53.5,557.094,0.1600000,0.8020000,-0.0001653
53.55,557.594,0.1600000,0.8020000,-0.0000953
53.6,558.094,0.1600000,0.8020000,-0.0000665
53.65,558.594,0.1600000,0.8020000,0.0000373
53.7,559.094,0.1600000,0.8020000,-0.0000645
53.75,559.595,0.1600000,0.8020000,-0.0001390
53.81,560.095,0.1600000,0.8010000,-0.0004133
53.86,560.595,0.1600000,0.8010000,-0.0005558
53.91,561.095,0.1600000,0.8010000,-0.0004750
53.96,561.595,0.1600000,0.8010000,-0.0002148
54.01,562.095,0.1590000,0.8010000,-0.0001613
54.05,562.595,0.1590000,0.8010000,-0.0001627
54.1,563.095,0.1590000,0.8010000,-0.0003553
54.15,563.595,0.1590000,0.8010000,-0.0003674
54.2,564.095,0.1590000,0.8000000,-0.0002543
54.25,564.595,0.1590000,0.8000000,-0.0004615
54.31,565.096,0.1590000,0.8000000,-0.0004718
54.36,565.596,0.1590000,0.8000000,-0.0001905
54.4,566.096,0.1590000,0.8000000,-0.0000450
54.45,566.596,0.1590000,0.8000000,-0.0003418
54.5,567.096,0.1590000,0.8000000,-0.0004438
54.55,567.596,0.1590000,0.8000000,-0.0005274
54.6,568.096,0.1590000,0.7990000,-0.0004025
54.65,568.596,0.1590000,0.7990000,-0.0000952
54.7,569.096,0.1590000,0.7990000,0.0000887
54.75,569.596,0.1590000,0.7990000,-0.0001754
54.8,570.096,0.1590000,0.7990000,-0.0001361
54.85,570.597,0.1590000,0.7990000,-0.0003156
54.9,571.097,0.1590000,0.7990000,-0.0004235
54.95,571.597,0.1590000,0.7990000,-0.0001309
55,572.097,0.1590000,0.7990000,-0.0003532
55.05,572.597,0.1590000,0.7980000,-0.0003172
55.1,573.097,0.1590000,0.7980000,-0.0005753
55.15,573.597,0.1590000,0.7980000,-0.0003891
55.2,574.097,0.1590000,0.7980000,-0.0003731
55.25,574.597,0.1590000,0.7980000,-0.0004729
55.3,575.097,0.1590000,0.7980000,-0.0004185
55.35,575.597,0.1590000,0.7970000,-0.0002430
55.4,576.098,0.1590000,0.7970000,-0.0001506
55.45,576.598,0.1590000,0.7970000,-0.0004970
55.5,577.098,0.1590000,0.7970000,-0.0003471
55.55,577.598,0.1590000,0.7970000,-0.0000841
55.6,578.098,0.1590000,0.7960000,-0.0002669
55.65,578.598,0.1590000,0.7960000,-0.0003303
55.7,579.098,0.1580000,0.7960000,-0.0004774
55.75,579.598,0.1580000,0.7960000,-0.0003374
55.8,580.098,0.1580000,0.7950000,-0.0002394
55.85,580.598,0.1580000,0.7950000,-0.0004091
55.9,581.098,0.1580000,0.7950000,-0.0005355
55.95,581.598,0.1580000,0.7950000,-0.0007097
56,582.099,0.1580000,0.7940000,-0.0007349
56.05,582.599,0.1580000,0.7940000,-0.0007609
56.1,583.099,0.1580000,0.7940000,-0.0008604
56.15,583.599,0.1580000,0.7930000,-0.0008296
56.2,584.099,0.1580000,0.7930000,-0.0010076
56.25,584.599,0.1580000,0.7920000,-0.0009216
56.3,585.099,0.1580000,0.7920000,-0.0008733
56.35,585.599,0.1580000,0.7920000,-0.0008190
56.4,586.099,0.1580000,0.7910000,-0.0009093
56.45,586.599,0.1570000,0.7910000,-0.0009301
56.5,587.099,0.1570000,0.7900000,-0.0010035
56.55,587.6,0.1570000,0.7900000,-0.0010077
56.6,588.1,0.1570000,0.7890000,-0.0009909
56.65,588.6,0.1570000,0.7890000,-0.0010323
56.7,589.1,0.1570000,0.7880000,-0.0010603
56.75,589.6,0.1570000,0.7870000,-0.0012094
56.79,590,0.1570000,0.7870000,-0.0009483