File: R/rHDPE_App/app/www/Output/TGA/Condensed_Data/Resin4_1_.csv
0.7400000,30,11.634,100.02,0.0057884
0.8100000,30.5001,11.634,100.023,0.0109515
0.8800000,31.0002,11.634,100.026,0.0019182
0.9400000,31.5003,11.635,100.028,0.0018534
1,32.0004,11.635,100.03,0.0013718
1.06,32.5004,11.635,100.031,0.0008074
1.12,33.0005,11.635,100.033,0.0062683
1.18,33.5006,11.635,100.034,0.0011035
1.23,34.0007,11.636,100.036,0.0005203
1.29,34.5008,11.636,100.037,0.0053172
1.34,35.0009,11.636,100.038,-0.0009235
1.4,35.501,11.636,100.038,0.0019363
1.46,36.0011,11.636,100.039,0.0005066
1.51,36.5012,11.636,100.04,0.0033729
1.57,37.0013,11.636,100.041,0.0001002
1.62,37.5013,11.636,100.042,0.0031394
1.68,38.0014,11.636,100.043,0.0008926
1.73,38.5015,11.636,100.043,0.0007902
1.78,39.0016,11.637,100.044,0.0014759
1.84,39.5017,11.637,100.045,0.0014220
1.89,40.0018,11.637,100.046,0.0027373
1.94,40.5019,11.637,100.047,0.0015600
2,41.002,11.637,100.048,0.0010700
2.05,41.5021,11.637,100.049,0.0024778
2.1,42.0021,11.637,100.049,0.0016500
2.16,42.5022,11.637,100.05,0.0015500
2.21,43.0023,11.637,100.051,0.0018374
2.26,43.5024,11.637,100.052,0.0016412
2.31,44.0025,11.637,100.052,0.0008188
2.37,44.5026,11.638,100.053,0.0013471
2.42,45.0027,11.638,100.054,0.0020177
2.47,45.5028,11.638,100.055,0.0016307
2.53,46.0029,11.638,100.056,0.0009092
2.58,46.5029,11.638,100.056,-0.0000954
2.63,47.003,11.638,100.057,0.0018603
2.68,47.5031,11.638,100.058,0.0014767
2.73,48.0032,11.638,100.059,-0.0005705
2.79,48.5033,11.638,100.059,0.0017576
2.84,49.0034,11.638,100.06,0.0023236
2.89,49.5035,11.638,100.061,0.0016106
2.94,50.0036,11.639,100.062,0.0015133
2.99,50.5037,11.639,100.062,0.0009915
3.04,51.0038,11.639,100.063,0.0011316
3.09,51.5038,11.639,100.064,0.0018843
3.15,52.0039,11.639,100.065,0.0019770
3.2,52.504,11.639,100.066,0.0017381
3.25,53.0041,11.639,100.066,0.0001878
3.3,53.5042,11.639,100.067,0.0011720
3.35,54.0043,11.639,100.068,0.0019209
3.4,54.5044,11.639,100.068,0.0007489
3.45,55.0045,11.639,100.069,0.0007485
3.51,55.5046,11.64,100.07,0.0020090
3.56,56.0046,11.64,100.071,0.0022885
3.61,56.5047,11.64,100.071,0.0004200
3.66,57.0048,11.64,100.072,0.0018181
3.71,57.5049,11.64,100.073,0.0020487
3.76,58.005,11.64,100.073,0.0007911
3.81,58.5051,11.64,100.074,0.0009767
3.86,59.0052,11.64,100.075,0.0013466
3.91,59.5053,11.64,100.075,-0.0001393
3.96,60.0054,11.64,100.076,0.0011133
4.01,60.5054,11.64,100.076,0.0016686
4.06,61.0055,11.64,100.077,0.0012045
4.11,61.5056,11.64,100.078,0.0010653
4.16,62.0057,11.641,100.078,0.0020828
4.21,62.5058,11.641,100.079,0.0021269
4.27,63.0059,11.641,100.08,-0.0000462
4.32,63.506,11.641,100.08,0.0020800
4.37,64.0061,11.641,100.081,0.0020788
4.42,64.5062,11.641,100.082,0.0013847
4.47,65.0063,11.641,100.082,0.0008767
4.52,65.5063,11.641,100.083,0.0011070
4.57,66.0064,11.641,100.083,0.0011061
4.62,66.5065,11.641,100.084,0.0002304
4.67,67.0066,11.641,100.084,0.0004607
4.72,67.5067,11.641,100.085,0.0017041
4.77,68.0068,11.641,100.085,-0.0000921
4.82,68.5069,11.641,100.086,0.0002761
4.87,69.007,11.641,100.086,0.0013333
4.92,69.5071,11.642,100.087,0.0016083
4.97,70.0071,11.642,100.088,0.0005514
5.02,70.5072,11.642,100.088,0.0015620
5.07,71.0073,11.642,100.089,0.0014237
5.12,71.5074,11.642,100.089,0.0002754
5.17,72.0075,11.642,100.089,0.0007345
5.22,72.5076,11.642,100.09,0.0012853
5.27,73.0077,11.642,100.091,0.0009179
5.32,73.5078,11.642,100.091,0.0005966
5.37,74.0079,11.642,100.092,0.0013764
5.42,74.5079,11.642,100.092,0.0013766
5.47,75.008,11.642,100.093,0.0000459
5.52,75.5081,11.642,100.093,0.0008257
5.57,76.0082,11.642,100.094,0.0016967
5.62,76.5083,11.642,100.094,0.0014217
5.67,77.0084,11.642,100.094,0.0004585
5.72,77.5085,11.642,100.095,0.0020179
5.77,78.0086,11.643,100.096,0.0018340
5.82,78.5087,11.643,100.096,0.0007817
5.87,79.0088,11.643,100.097,0.0021087
5.92,79.5088,11.643,100.097,0.0012832
5.97,80.0089,11.643,100.098,0.0014194
6.02,80.509,11.643,100.099,0.0015101
6.07,81.0091,11.643,100.099,0.0010520
6.12,81.5092,11.643,100.099,0.0010063
6.17,82.0093,11.643,100.1,0.0010519
6.22,82.5094,11.643,100.1,0.0010980
6.27,83.0095,11.643,100.101,0.0009147
6.32,83.5096,11.643,100.101,0.0007321
6.37,84.0096,11.643,100.101,0.0010070
6.42,84.5097,11.643,100.101,0.0008237
6.47,85.0098,11.643,100.102,0.0004576
6.52,85.5099,11.643,100.102,0.0005031
6.57,86.01,11.643,100.102,0.0010979
6.62,86.5101,11.643,100.102,0.0005490
6.67,87.0102,11.643,100.103,0.0006864
6.72,87.5103,11.643,100.103,0.0006407
6.77,88.0104,11.643,100.103,0.0005492
6.82,88.5104,11.643,100.104,0.0006408
6.87,89.0105,11.644,100.104,0.0008696
6.92,89.5106,11.644,100.104,0.0008694
6.97,90.0107,11.644,100.105,0.0008235
7.02,90.5108,11.644,100.105,0.0006863
7.07,91.0109,11.644,100.105,0.0005033
7.12,91.511,11.644,100.105,0.0006406
7.17,92.0111,11.644,100.106,0.0005950
7.22,92.5112,11.644,100.106,0.0005494
7.27,93.0113,11.644,100.106,0.0004122
7.32,93.5113,11.644,100.106,0.0005040
7.37,94.0114,11.644,100.106,0.0007790
7.42,94.5115,11.644,100.107,0.0005959
7.47,95.0116,11.644,100.107,0.0010540
7.52,95.5117,11.644,100.107,0.0005957
7.57,96.0118,11.644,100.108,0.0004582
7.62,96.5119,11.644,100.108,0.0004581
7.67,97.012,11.644,100.108,0.0004582
7.72,97.5121,11.644,100.109,-0.0003206
7.77,98.0121,11.644,100.109,-0.0001374
7.82,98.5122,11.644,100.109,0.0002747
7.87,99.0123,11.644,100.109,-0.0000915
7.92,99.5124,11.644,100.109,0.0002290
7.97,100.013,11.644,100.109,-0.0000458
8.02,100.513,11.644,100.109,-0.0000916
8.07,101.013,11.644,100.11,0.0003205
8.12,101.513,11.644,100.11,0.0000457
8.17,102.013,11.644,100.11,0.0002745
8.22,102.513,11.644,100.11,0.0005038
8.27,103.013,11.644,100.11,0.0003206
8.32,103.513,11.644,100.111,0.0002749
8.37,104.013,11.644,100.111,0.0001374
8.43,104.513,11.644,100.111,-0.0000916
8.48,105.013,11.644,100.111,0.0003208
8.53,105.513,11.644,100.111,0.0004582
8.58,106.014,11.644,100.111,0.0005957
8.63,106.514,11.644,100.111,0.0003207
8.68,107.014,11.644,100.111,0.0004123
8.73,107.514,11.644,100.112,0.0006411
8.78,108.014,11.644,100.112,-0.0000458
8.83,108.514,11.644,100.112,0.0007327
8.88,109.014,11.644,100.112,-0.0002745
8.93,109.514,11.644,100.112,0.0004118
8.98,110.014,11.644,100.112,0.0001372
9.03,110.514,11.644,100.112,0.0004571
9.08,111.014,11.644,100.112,0.0000000
9.13,111.515,11.644,100.112,0.0001830
9.18,112.015,11.644,100.112,0.0000000
9.23,112.515,11.644,100.112,0.0000000
9.28,113.015,11.644,100.112,0.0001831
9.33,113.515,11.645,100.113,-0.0001372
9.38,114.015,11.644,100.112,0.0000000
9.43,114.515,11.644,100.112,-0.0004120
9.47,115.015,11.644,100.112,0.0004575
9.52,115.515,11.645,100.113,-0.0003662
9.57,116.015,11.645,100.113,0.0000916
9.62,116.515,11.645,100.113,0.0004121
9.67,117.016,11.645,100.113,-0.0003662
9.72,117.516,11.645,100.113,-0.0000916
9.78,118.016,11.645,100.113,-0.0003207
9.83,118.516,11.645,100.113,-0.0002749
9.88,119.016,11.645,100.113,-0.0004583
9.93,119.516,11.645,100.113,-0.0001376
9.98,120.016,11.645,100.113,0.0001375
10.03,120.516,11.645,100.113,-0.0002750
10.08,121.016,11.645,100.113,0.0000458
10.13,121.516,11.645,100.113,-0.0000458
10.18,122.016,11.645,100.113,-0.0003667
10.23,122.517,11.645,100.113,0.0000917
10.28,123.017,11.645,100.113,0.0000917
10.33,123.517,11.645,100.113,-0.0000917
10.38,124.017,11.645,100.113,0.0000917
10.43,124.517,11.645,100.113,-0.0000917
10.48,125.017,11.645,100.113,0.0000458
10.53,125.517,11.645,100.113,0.0000000
10.58,126.017,11.645,100.113,0.0000918
10.63,126.517,11.645,100.113,0.0002754
10.68,127.017,11.645,100.113,0.0002295
10.73,127.517,11.645,100.113,0.0000919
10.78,128.018,11.645,100.113,0.0004591
10.83,128.518,11.645,100.113,0.0005051
10.88,129.018,11.645,100.114,0.0004130
10.93,129.518,11.645,100.114,0.0004592
10.98,130.018,11.645,100.114,0.0005057
11.03,130.518,11.645,100.115,0.0006905
11.08,131.018,11.645,100.115,0.0008290
11.13,131.518,11.645,100.115,0.0007832
11.18,132.018,11.645,100.116,0.0003223
11.23,132.518,11.645,100.116,0.0005521
11.28,133.018,11.645,100.117,0.0007814
11.33,133.518,11.645,100.117,0.0008266
11.38,134.019,11.645,100.117,0.0010557
11.43,134.519,11.645,100.118,0.0002756
11.48,135.019,11.645,100.118,0.0010560
11.53,135.519,11.645,100.118,0.0009636
11.58,136.019,11.645,100.119,0.0010092
11.63,136.519,11.645,100.119,0.0009624
11.68,137.019,11.645,100.119,0.0006413
11.73,137.519,11.645,100.12,0.0001831
11.78,138.019,11.645,100.12,0.0003201
11.83,138.519,11.645,100.12,-0.0000457
11.88,139.019,11.645,100.12,-0.0001827
11.93,139.52,11.645,100.12,0.0000000
11.98,140.02,11.645,100.12,0.0004564
12.03,140.52,11.645,100.12,0.0000000
12.08,141.02,11.645,100.12,0.0000000
12.13,141.52,11.645,100.12,-0.0001368
12.18,142.02,11.645,100.12,0.0000456
12.23,142.52,11.645,100.12,-0.0002279
12.28,143.02,11.645,100.12,-0.0005468
12.33,143.52,11.645,100.119,-0.0006831
12.38,144.02,11.645,100.119,-0.0013202
12.43,144.52,11.645,100.118,-0.0015004
12.48,145.021,11.645,100.117,-0.0013160
12.53,145.521,11.645,100.116,-0.0020390
12.58,146.021,11.645,100.116,-0.0025333
12.63,146.521,11.645,100.114,-0.0024842
12.68,147.021,11.645,100.113,-0.0025270
12.73,147.521,11.644,100.112,-0.0025271
12.77,148.021,11.644,100.111,-0.0025277
12.82,148.521,11.644,100.109,-0.0025766
12.87,149.021,11.644,100.108,-0.0018111
12.92,149.521,11.644,100.107,-0.0020427
12.97,150.021,11.644,100.106,-0.0023199
13.02,150.522,11.644,100.105,-0.0014138
13.07,151.022,11.644,100.104,-0.0012346
13.12,151.522,11.643,100.104,-0.0012835
13.17,152.022,11.643,100.103,-0.0011024
13.22,152.522,11.643,100.102,-0.0011502
13.27,153.022,11.643,100.102,-0.0006446
13.32,153.522,11.643,100.101,-0.0007829
13.37,154.022,11.643,100.101,-0.0006914
13.42,154.522,11.643,100.1,-0.0007839
13.47,155.022,11.643,100.1,-0.0011073
13.52,155.522,11.643,100.1,-0.0007844
13.57,156.023,11.643,100.099,-0.0009225
13.63,156.523,11.643,100.099,-0.0008303
13.68,157.023,11.643,100.099,-0.0003689
13.73,157.523,11.643,100.098,-0.0003226
13.78,158.023,11.643,100.098,0.0000460
13.83,158.523,11.643,100.098,-0.0005985
13.88,159.023,11.643,100.098,-0.0007823
13.93,159.523,11.643,100.097,-0.0003679
13.98,160.023,11.643,100.097,-0.0008278
14.03,160.523,11.643,100.097,-0.0005516
14.08,161.023,11.643,100.097,-0.0004597
14.13,161.523,11.643,100.096,-0.0003216
14.18,162.024,11.643,100.096,-0.0006431
14.23,162.524,11.643,100.096,-0.0002295
14.28,163.024,11.643,100.096,-0.0004591
14.33,163.524,11.643,100.096,-0.0000459
14.38,164.024,11.643,100.096,-0.0000459
14.43,164.524,11.643,100.095,-0.0000918
14.48,165.024,11.642,100.095,-0.0001377
14.53,165.524,11.642,100.095,0.0001836
14.58,166.024,11.642,100.095,0.0000459
14.63,166.524,11.642,100.095,0.0000459
14.68,167.024,11.642,100.095,-0.0000919
14.73,167.525,11.642,100.094,-0.0005051
14.78,168.025,11.642,100.094,0.0000000
14.83,168.525,11.642,100.094,-0.0005048
14.88,169.025,11.642,100.094,-0.0003211
14.93,169.525,11.642,100.093,-0.0007798
14.98,170.025,11.642,100.093,-0.0008255
15.03,170.525,11.642,100.093,-0.0003210
15.08,171.025,11.642,100.092,-0.0004585
15.13,171.525,11.642,100.092,-0.0005505
15.18,172.025,11.642,100.092,-0.0009168
15.23,172.525,11.642,100.092,-0.0004584
15.28,173.026,11.642,100.091,-0.0009627
15.33,173.526,11.642,100.091,-0.0007794
15.38,174.026,11.642,100.091,-0.0011465
15.43,174.526,11.642,100.09,-0.0007792
15.48,175.026,11.642,100.09,-0.0005040
15.53,175.526,11.642,100.09,-0.0007328
15.58,176.026,11.642,100.09,-0.0010078
15.63,176.526,11.642,100.089,-0.0009625
15.68,177.026,11.642,100.089,-0.0006877
15.73,177.526,11.642,100.089,-0.0005962
15.78,178.026,11.642,100.089,-0.0009624
15.83,178.527,11.642,100.088,-0.0006408
15.88,179.027,11.642,100.088,-0.0009607
15.93,179.527,11.642,100.088,-0.0008693
15.98,180.027,11.642,100.087,-0.0005949
16.03,180.527,11.642,100.087,-0.0007786
16.08,181.027,11.641,100.087,-0.0005956
16.13,181.527,11.641,100.086,-0.0005957
16.18,182.027,11.641,100.086,-0.0009624
16.23,182.527,11.641,100.086,-0.0007791
16.28,183.027,11.641,100.085,-0.0005956
16.33,183.527,11.641,100.085,-0.0001834
16.38,184.028,11.641,100.084,-0.0002291
16.43,184.528,11.641,100.084,-0.0005037
16.48,185.028,11.641,100.084,-0.0002291
16.53,185.528,11.641,100.083,-0.0006881
16.58,186.028,11.641,100.083,-0.0007336
16.63,186.528,11.641,100.082,-0.0002750
16.68,187.028,11.641,100.082,-0.0004581
16.73,187.528,11.641,100.082,-0.0010076
16.78,188.028,11.641,100.081,-0.0008245
16.83,188.528,11.641,100.081,-0.0008705
16.88,189.028,11.641,100.08,-0.0008245
16.93,189.528,11.641,100.08,-0.0005500
16.98,190.029,11.641,100.08,-0.0009622
17.03,190.529,11.641,100.079,-0.0009166
17.08,191.029,11.641,100.079,-0.0008243
17.13,191.529,11.641,100.079,-0.0012826
17.18,192.029,11.641,100.078,-0.0009159
17.23,192.529,11.64,100.078,-0.0009621
17.28,193.029,11.64,100.077,-0.0012832
17.33,193.529,11.64,100.077,-0.0010999
17.38,194.029,11.64,100.076,-0.0010999
17.43,194.529,11.64,100.076,-0.0011001
17.48,195.029,11.64,100.075,-0.0008253
17.53,195.53,11.64,100.075,-0.0008249
17.58,196.03,11.64,100.074,-0.0016950
17.63,196.53,11.64,100.074,-0.0015582
17.68,197.03,11.64,100.073,-0.0011919
17.73,197.53,11.64,100.073,-0.0013294
17.78,198.03,11.64,100.072,-0.0013287
17.83,198.53,11.64,100.072,-0.0008247
17.88,199.03,11.64,100.071,-0.0005495
17.93,199.53,11.64,100.071,-0.0004122
17.98,200.03,11.64,100.07,-0.0006867
18.03,200.53,11.64,100.07,-0.0010982
18.08,201.031,11.639,100.07,-0.0004119
18.13,201.531,11.639,100.069,-0.0011438
18.18,202.031,11.639,100.068,-0.0010068
18.23,202.531,11.639,100.068,-0.0009161
18.28,203.031,11.639,100.067,-0.0010541
18.33,203.531,11.639,100.067,-0.0007793
18.38,204.031,11.639,100.066,-0.0011006
18.43,204.531,11.639,100.065,-0.0012380
18.48,205.031,11.639,100.065,-0.0013300
18.53,205.531,11.639,100.064,-0.0008252
18.58,206.031,11.639,100.064,-0.0013291
18.63,206.532,11.639,100.063,-0.0014207
18.68,207.032,11.639,100.063,-0.0013291
18.73,207.532,11.639,100.062,-0.0016045
18.78,208.032,11.639,100.061,-0.0012374
18.83,208.532,11.638,100.061,-0.0009617
18.88,209.032,11.638,100.06,-0.0017852
18.93,209.532,11.638,100.06,-0.0012363
18.98,210.032,11.638,100.059,-0.0005956
19.03,210.532,11.638,100.058,-0.0012365
19.08,211.032,11.638,100.058,-0.0010536
19.13,211.532,11.638,100.057,-0.0011907
19.18,212.033,11.638,100.057,-0.0008704
19.23,212.533,11.638,100.056,-0.0012834
19.28,213.033,11.638,100.056,0.0001833
19.33,213.533,11.638,100.055,-0.0015129
19.38,214.033,11.638,100.055,-0.0016957
19.43,214.533,11.638,100.054,-0.0013745
19.48,215.033,11.638,100.053,-0.0016045
19.53,215.533,11.638,100.052,-0.0016965
19.58,216.033,11.637,100.052,-0.0014209
19.63,216.533,11.637,100.051,-0.0015128
19.68,217.033,11.637,100.05,-0.0021087
19.73,217.533,11.637,100.05,-0.0016034
19.78,218.034,11.637,100.049,-0.0017403
19.83,218.534,11.637,100.048,-0.0015575
19.88,219.034,11.637,100.048,-0.0018320
19.93,219.534,11.637,100.047,-0.0012824
19.98,220.034,11.637,100.046,-0.0008246
20.03,220.534,11.637,100.046,-0.0006873
20.08,221.034,11.637,100.045,-0.0016499
20.13,221.534,11.637,100.044,-0.0010997
20.18,222.034,11.636,100.043,-0.0016043
20.23,222.534,11.636,100.043,-0.0016046
20.28,223.034,11.636,100.042,-0.0016050
20.33,223.535,11.636,100.041,-0.0016054
20.38,224.035,11.636,100.04,-0.0015582
20.44,224.535,11.636,100.04,-0.0011909
20.49,225.035,11.636,100.039,-0.0017399
20.54,225.535,11.636,100.038,-0.0017399
20.59,226.035,11.636,100.037,-0.0014185
20.64,226.535,11.636,100.037,-0.0016476
20.69,227.035,11.636,100.036,-0.0017857
20.74,227.535,11.635,100.035,-0.0015572
20.79,228.035,11.635,100.034,-0.0014204
20.84,228.535,11.635,100.034,-0.0015582
20.89,229.036,11.635,100.033,-0.0015578
20.94,229.536,11.635,100.032,-0.0015124
20.99,230.036,11.635,100.031,-0.0016952
21.04,230.536,11.635,100.03,-0.0016489
21.09,231.036,11.635,100.03,-0.0019241
21.14,231.536,11.635,100.029,-0.0014194
21.19,232.036,11.635,100.028,-0.0015560
21.24,232.536,11.635,100.027,-0.0017396
21.29,233.036,11.634,100.026,-0.0021526
21.34,233.536,11.634,100.025,-0.0015582
21.39,234.036,11.634,100.024,-0.0020171
21.44,234.537,11.634,100.023,-0.0020642
21.49,235.037,11.634,100.022,-0.0011927
21.54,235.537,11.634,100.022,-0.0015134
21.59,236.037,11.634,100.021,-0.0014205
21.64,236.537,11.634,100.02,-0.0018329
21.69,237.037,11.634,100.019,-0.0015582
21.74,237.537,11.634,100.018,-0.0020161
21.79,238.037,11.633,100.017,-0.0015115
21.84,238.537,11.633,100.016,-0.0021986
21.89,239.037,11.633,100.015,-0.0018773
21.94,239.537,11.633,100.014,-0.0021501
21.99,240.038,11.633,100.013,-0.0019199
22.04,240.538,11.633,100.013,-0.0021950
22.09,241.038,11.633,100.011,-0.0022422
22.14,241.538,11.633,100.011,-0.0021978
22.19,242.038,11.633,100.01,-0.0019716
22.24,242.538,11.632,100.009,-0.0020631
22.29,243.038,11.632,100.008,-0.0021084
22.34,243.538,11.632,100.007,-0.0016949
22.39,244.038,11.632,100.006,-0.0021072
22.44,244.538,11.632,100.005,-0.0018310
22.49,245.038,11.632,100.004,-0.0019689
22.54,245.538,11.632,100.003,-0.0023816
22.59,246.039,11.632,100.002,-0.0016947
22.64,246.539,11.632,100.001,-0.0021072
22.69,247.039,11.631,100,-0.0021082
22.74,247.539,11.631,99.999,-0.0020169
22.79,248.039,11.631,99.998,-0.0022915
22.84,248.539,11.631,99.997,-0.0022915
22.89,249.039,11.631,99.996,-0.0014204
22.94,249.539,11.631,99.995,-0.0016957
22.99,250.039,11.631,99.994,-0.0021078
23.04,250.539,11.631,99.993,-0.0017415
23.09,251.039,11.63,99.992,-0.0020170
23.14,251.54,11.63,99.991,-0.0016045
23.19,252.04,11.63,99.99,-0.0020159
23.24,252.54,11.63,99.989,-0.0021992
23.29,253.04,11.63,99.988,-0.0021992
23.34,253.54,11.63,99.987,-0.0023362
23.39,254.04,11.63,99.986,-0.0024718
23.44,254.54,11.63,99.984,-0.0023803
23.49,255.04,11.629,99.983,-0.0015106
23.54,255.54,11.629,99.982,-0.0022428
23.59,256.04,11.629,99.981,-0.0028837
23.64,256.54,11.629,99.98,-0.0026089
23.69,257.041,11.629,99.979,-0.0019689
23.74,257.541,11.629,99.978,-0.0025622
23.79,258.041,11.629,99.976,-0.0023338
23.84,258.541,11.629,99.975,-0.0025655
23.89,259.041,11.628,99.974,-0.0023840
23.94,259.541,11.628,99.973,-0.0024294
23.99,260.041,11.628,99.972,-0.0023382
24.04,260.541,11.628,99.97,-0.0023823
24.09,261.041,11.628,99.969,-0.0023352
24.14,261.541,11.628,99.968,-0.0026113
24.19,262.041,11.628,99.967,-0.0026113
24.24,262.542,11.627,99.965,-0.0025660
24.29,263.042,11.627,99.964,-0.0024743
24.34,263.542,11.627,99.963,-0.0027508
24.39,264.042,11.627,99.961,-0.0025197
24.44,264.542,11.627,99.96,-0.0026109
24.49,265.042,11.627,99.959,-0.0027462
24.54,265.542,11.626,99.957,-0.0030204
24.59,266.042,11.626,99.956,-0.0025618
24.64,266.542,11.626,99.955,-0.0027905
24.69,267.042,11.626,99.953,-0.0020593
24.74,267.542,11.626,99.952,-0.0028809
24.79,268.043,11.626,99.951,-0.0028372
24.84,268.543,11.625,99.949,-0.0026091
24.89,269.043,11.625,99.948,-0.0029304
24.94,269.543,11.625,99.946,-0.0026557
24.99,270.043,11.625,99.945,-0.0027940
25.04,270.543,11.625,99.943,-0.0033901
25.09,271.043,11.625,99.942,-0.0032967
25.14,271.543,11.624,99.94,-0.0032967
25.19,272.043,11.624,99.939,-0.0033864
25.24,272.543,11.624,99.937,-0.0031136
25.29,273.043,11.624,99.936,-0.0028836
25.34,273.543,11.624,99.934,-0.0030678
25.39,274.044,11.624,99.933,-0.0029762
25.44,274.544,11.623,99.931,-0.0030220
25.49,275.044,11.623,99.929,-0.0034843
25.54,275.544,11.623,99.928,-0.0027039
25.59,276.044,11.623,99.926,-0.0034843
25.64,276.544,11.623,99.924,-0.0033010
25.69,277.044,11.622,99.923,-0.0036205
25.74,277.544,11.622,99.921,-0.0036186
25.79,278.044,11.622,99.919,-0.0032522
25.84,278.544,11.622,99.918,-0.0036192
25.89,279.044,11.622,99.916,-0.0028862
25.94,279.545,11.621,99.914,-0.0034810
25.99,280.045,11.621,99.912,-0.0029772
26.04,280.545,11.621,99.911,-0.0034830
26.09,281.045,11.621,99.909,-0.0041254
26.14,281.545,11.621,99.907,-0.0039893
26.19,282.045,11.62,99.905,-0.0040826
26.24,282.545,11.62,99.903,-0.0037615
26.29,283.045,11.62,99.901,-0.0041269
26.34,283.545,11.62,99.899,-0.0038991
26.39,284.045,11.619,99.897,-0.0035301
26.44,284.545,11.619,99.895,-0.0036205
26.49,285.046,11.619,99.893,-0.0040315
26.54,285.546,11.619,99.891,-0.0041704
26.59,286.046,11.618,99.889,-0.0039871
26.64,286.546,11.618,99.887,-0.0043040
26.69,287.046,11.618,99.885,-0.0038004
26.74,287.546,11.618,99.883,-0.0043956
26.79,288.046,11.618,99.881,-0.0041651
26.84,288.546,11.617,99.879,-0.0040727
26.89,289.046,11.617,99.876,-0.0039377
26.94,289.546,11.617,99.874,-0.0047161
26.99,290.046,11.617,99.872,-0.0040774
27.04,290.547,11.616,99.87,-0.0041224
27.09,291.047,11.616,99.868,-0.0041238
27.14,291.547,11.616,99.865,-0.0044439
27.19,292.047,11.615,99.863,-0.0049038
27.24,292.547,11.615,99.861,-0.0049038
27.29,293.047,11.615,99.858,-0.0050843
27.34,293.547,11.615,99.856,-0.0047637
27.39,294.047,11.614,99.854,-0.0046270
27.44,294.547,11.614,99.851,-0.0049478
27.49,295.047,11.614,99.849,-0.0048570
27.54,295.547,11.613,99.846,-0.0053620
27.59,296.048,11.613,99.843,-0.0050394
27.64,296.548,11.613,99.841,-0.0055434
27.69,297.048,11.613,99.838,-0.0053154
27.74,297.548,11.612,99.836,-0.0050871
27.79,298.048,11.612,99.833,-0.0052198
27.84,298.548,11.612,99.83,-0.0052685
27.89,299.048,11.611,99.828,-0.0055434
27.94,299.548,11.611,99.825,-0.0050402
27.99,300.048,11.611,99.822,-0.0056351
28.04,300.548,11.61,99.82,-0.0054516
28.09,301.048,11.61,99.817,-0.0055424
28.14,301.548,11.61,99.814,-0.0058662
28.19,302.049,11.609,99.811,-0.0058172
28.24,302.549,11.609,99.808,-0.0057267
28.29,303.049,11.609,99.805,-0.0054537
28.34,303.549,11.608,99.803,-0.0056808
28.39,304.049,11.608,99.8,-0.0055454
28.44,304.549,11.608,99.797,-0.0057724
28.49,305.049,11.607,99.794,-0.0054466
28.54,305.549,11.607,99.791,-0.0060864
28.59,306.049,11.607,99.788,-0.0058182
28.64,306.549,11.606,99.785,-0.0065488
28.69,307.049,11.606,99.782,-0.0061780
28.74,307.55,11.606,99.779,-0.0060865
28.79,308.05,11.605,99.775,-0.0064560
28.84,308.55,11.605,99.772,-0.0064584
28.89,309.05,11.605,99.769,-0.0060004
28.94,309.55,11.604,99.766,-0.0064103
28.99,310.05,11.604,99.762,-0.0065501
29.04,310.55,11.603,99.759,-0.0069178
29.09,311.05,11.603,99.755,-0.0065513
29.14,311.55,11.603,99.752,-0.0066429
29.19,312.05,11.602,99.749,-0.0066899
29.24,312.55,11.602,99.745,-0.0067766
29.29,313.051,11.601,99.742,-0.0070552
29.34,313.551,11.601,99.739,-0.0072344
29.39,314.051,11.601,99.735,-0.0071009
29.44,314.551,11.6,99.732,-0.0075564
29.49,315.051,11.6,99.728,-0.0074702
29.54,315.551,11.599,99.724,-0.0074312
29.59,316.051,11.599,99.72,-0.0072504
29.64,316.551,11.598,99.717,-0.0073435
29.69,317.051,11.598,99.713,-0.0074338
29.74,317.551,11.598,99.709,-0.0079358
29.79,318.051,11.597,99.705,-0.0075646
29.84,318.552,11.597,99.701,-0.0073758
29.89,319.052,11.596,99.698,-0.0071886
29.94,319.552,11.596,99.694,-0.0075550
29.99,320.052,11.595,99.69,-0.0076895
30.04,320.552,11.595,99.686,-0.0075050
30.09,321.052,11.594,99.682,-0.0076880
30.14,321.552,11.594,99.678,-0.0079154
30.19,322.052,11.594,99.674,-0.0078225
30.24,322.552,11.593,99.67,-0.0079597
30.29,323.052,11.593,99.666,-0.0080099
30.34,323.552,11.592,99.662,-0.0081915
30.39,324.053,11.592,99.658,-0.0076465
30.44,324.553,11.591,99.654,-0.0080999
30.49,325.053,11.591,99.65,-0.0082845
30.54,325.553,11.59,99.646,-0.0083304
30.59,326.053,11.59,99.641,-0.0081960
30.64,326.553,11.589,99.637,-0.0083791
30.69,327.053,11.589,99.633,-0.0081502
30.74,327.553,11.588,99.629,-0.0087487
30.79,328.053,11.588,99.625,-0.0081547
30.84,328.553,11.587,99.62,-0.0087013
30.89,329.053,11.587,99.616,-0.0083791
30.94,329.553,11.586,99.612,-0.0087454
30.99,330.054,11.586,99.607,-0.0089286
31.04,330.554,11.585,99.603,-0.0085623
31.09,331.054,11.585,99.599,-0.0090659
31.14,331.554,11.584,99.594,-0.0084738
31.19,332.054,11.584,99.59,-0.0087944
31.24,332.554,11.583,99.585,-0.0086159
31.29,333.054,11.583,99.581,-0.0086571
31.34,333.554,11.582,99.576,-0.0091117
31.39,334.054,11.582,99.572,-0.0085623
31.44,334.554,11.581,99.567,-0.0088322
31.49,335.054,11.581,99.562,-0.0090593
31.54,335.555,11.58,99.558,-0.0090136
31.59,336.055,11.579,99.553,-0.0090119
31.64,336.555,11.579,99.549,-0.0085971
31.69,337.055,11.578,99.544,-0.0088208
31.74,337.555,11.578,99.54,-0.0090004
31.79,338.055,11.577,99.535,-0.0090003
31.84,338.555,11.577,99.531,-0.0091898
31.89,339.055,11.576,99.526,-0.0090152
31.94,339.555,11.576,99.522,-0.0088778
31.99,340.055,11.575,99.517,-0.0091625
32.04,340.555,11.575,99.512,-0.0092558
32.09,341.056,11.574,99.507,-0.0092101
32.14,341.556,11.574,99.503,-0.0087864
32.19,342.056,11.573,99.498,-0.0087831
32.24,342.556,11.573,99.494,-0.0091051
32.29,343.056,11.572,99.489,-0.0090086
32.34,343.556,11.571,99.484,-0.0091475
32.39,344.056,11.571,99.48,-0.0091033
32.44,344.556,11.57,99.475,-0.0094270
32.49,345.056,11.57,99.471,-0.0091117
32.54,345.556,11.569,99.466,-0.0091150
32.59,346.056,11.569,99.462,-0.0086634
32.64,346.557,11.568,99.457,-0.0084326
32.69,347.057,11.568,99.453,-0.0089368
32.74,347.557,11.567,99.448,-0.0084296
32.79,348.057,11.567,99.444,-0.0086586
32.84,348.557,11.566,99.439,-0.0088418
32.89,349.057,11.566,99.435,-0.0088893
32.94,349.557,11.565,99.43,-0.0085654
32.99,350.057,11.565,99.426,-0.0081502
33.04,350.557,11.564,99.422,-0.0084707
33.09,351.057,11.564,99.418,-0.0083257
33.14,351.557,11.563,99.413,-0.0082297
33.19,352.058,11.563,99.409,-0.0084552
33.24,352.558,11.562,99.405,-0.0079068
33.29,353.058,11.562,99.401,-0.0084614
33.34,353.558,11.561,99.396,-0.0085971
33.39,354.058,11.561,99.392,-0.0082830
33.44,354.558,11.56,99.388,-0.0083745
33.49,355.058,11.56,99.384,-0.0079670
33.54,355.558,11.559,99.379,-0.0081502
33.59,356.058,11.559,99.375,-0.0081457
33.64,356.558,11.558,99.371,-0.0081931
33.69,357.058,11.558,99.367,-0.0076881
33.74,357.558,11.557,99.363,-0.0079169
33.79,358.059,11.557,99.359,-0.0078712
33.84,358.559,11.556,99.355,-0.0081502
33.89,359.059,11.556,99.351,-0.0078326
33.94,359.559,11.555,99.347,-0.0079714
33.99,360.059,11.555,99.343,-0.0082875
34.04,360.559,11.555,99.339,-0.0075591
34.09,361.059,11.554,99.335,-0.0076494
34.14,361.559,11.554,99.331,-0.0079670
34.19,362.059,11.553,99.327,-0.0082372
34.24,362.559,11.553,99.323,-0.0082418
34.29,363.059,11.552,99.319,-0.0081000
34.34,363.56,11.552,99.315,-0.0081044
34.39,364.06,11.551,99.31,-0.0081915
34.44,364.56,11.551,99.306,-0.0082372
34.49,365.06,11.55,99.302,-0.0078254
34.54,365.56,11.55,99.298,-0.0080999
34.59,366.06,11.549,99.294,-0.0081915
34.64,366.56,11.549,99.29,-0.0085118
34.69,367.06,11.548,99.286,-0.0082342
34.74,367.56,11.548,99.281,-0.0081427
34.79,368.06,11.547,99.277,-0.0087375
34.84,368.56,11.547,99.273,-0.0082875
34.89,369.061,11.546,99.269,-0.0087454
34.94,369.561,11.546,99.264,-0.0090201
34.99,370.061,11.545,99.26,-0.0086491
35.04,370.561,11.545,99.255,-0.0085575
35.09,371.061,11.544,99.251,-0.0091525
35.14,371.561,11.544,99.246,-0.0090086
35.19,372.061,11.543,99.242,-0.0091949
35.24,372.561,11.543,99.238,-0.0089678
35.29,373.061,11.542,99.233,-0.0091492
35.34,373.561,11.542,99.228,-0.0094253
35.39,374.061,11.541,99.224,-0.0094270
35.44,374.562,11.541,99.219,-0.0096083
35.49,375.062,11.54,99.214,-0.0092407
35.54,375.562,11.539,99.209,-0.0097474
35.59,376.062,11.539,99.205,-0.0097931
35.64,376.562,11.538,99.2,-0.0102601
35.69,377.062,11.538,99.194,-0.0104033
35.74,377.562,11.537,99.189,-0.0102218
35.79,378.062,11.537,99.184,-0.0102640
35.84,378.562,11.536,99.179,-0.0102621
35.89,379.062,11.535,99.174,-0.0106724
35.94,379.562,11.535,99.168,-0.0111304
35.99,380.063,11.534,99.163,-0.0105827
36.04,380.563,11.533,99.157,-0.0111264
36.09,381.063,11.533,99.151,-0.0117610
36.14,381.563,11.532,99.145,-0.0120355
36.19,382.063,11.531,99.139,-0.0121270
36.24,382.563,11.531,99.133,-0.0124542
36.29,383.063,11.53,99.127,-0.0128663
36.34,383.563,11.529,99.121,-0.0130881
36.39,384.063,11.528,99.114,-0.0130422
36.44,384.563,11.528,99.108,-0.0130785
36.49,385.063,11.527,99.101,-0.0137644
36.54,385.563,11.526,99.094,-0.0140947
36.59,386.064,11.525,99.087,-0.0144556
36.64,386.564,11.524,99.08,-0.0148271
36.69,387.064,11.524,99.072,-0.0149991
36.74,387.564,11.523,99.065,-0.0152790
36.79,388.064,11.522,99.057,-0.0159195
36.84,388.564,11.521,99.049,-0.0158337
36.89,389.064,11.52,99.041,-0.0164498
36.94,389.564,11.519,99.033,-0.0166453
36.99,390.064,11.518,99.024,-0.0169569
37.04,390.564,11.517,99.016,-0.0170944
37.09,391.064,11.516,99.007,-0.0175921
37.14,391.565,11.515,98.998,-0.0174387
37.19,392.065,11.514,98.989,-0.0185337
37.24,392.565,11.513,98.98,-0.0184355
37.29,393.065,11.512,98.97,-0.0185270
37.34,393.565,11.511,98.961,-0.0192132
37.39,394.065,11.509,98.951,-0.0197622
37.44,394.565,11.508,98.941,-0.0201281
37.49,395.065,11.507,98.931,-0.0201923
37.54,395.565,11.506,98.92,-0.0211538
37.59,396.065,11.505,98.91,-0.0211654
37.64,396.565,11.503,98.899,-0.0214364
37.69,397.066,11.502,98.889,-0.0218985
37.74,397.566,11.501,98.878,-0.0221612
37.79,398.066,11.5,98.866,-0.0229980
37.84,398.566,11.498,98.855,-0.0233187
37.89,399.066,11.497,98.843,-0.0234188
37.94,399.566,11.495,98.831,-0.0247253
37.99,400.066,11.494,98.819,-0.0250000
38.04,400.566,11.493,98.807,-0.0254028
38.09,401.066,11.491,98.794,-0.0254121
38.14,401.566,11.49,98.781,-0.0265422
38.19,402.066,11.488,98.768,-0.0269442
38.24,402.567,11.486,98.754,-0.0278998
38.29,403.067,11.485,98.74,-0.0279963
38.34,403.567,11.483,98.726,-0.0285911
38.39,404.067,11.482,98.711,-0.0289675
38.44,404.567,11.48,98.697,-0.0299743
38.49,405.067,11.478,98.681,-0.0307692
38.54,405.567,11.476,98.666,-0.0314388
38.59,406.067,11.474,98.65,-0.0324176
38.64,406.567,11.473,98.634,-0.0328116
38.69,407.067,11.471,98.617,-0.0335439
38.74,407.567,11.469,98.6,-0.0344133
38.79,408.068,11.467,98.583,-0.0351190
38.84,408.568,11.464,98.565,-0.0354201
38.89,409.068,11.462,98.546,-0.0373217
38.94,409.568,11.46,98.528,-0.0379689
38.99,410.068,11.458,98.508,-0.0388767
39.04,410.568,11.456,98.489,-0.0399286
39.09,411.068,11.453,98.468,-0.0409881
39.14,411.568,11.451,98.447,-0.0418877
39.19,412.068,11.448,98.426,-0.0433291
39.24,412.568,11.446,98.404,-0.0442818
39.29,413.068,11.443,98.381,-0.0460201
39.34,413.568,11.44,98.358,-0.0473839
39.39,414.069,11.438,98.334,-0.0480417
39.44,414.569,11.435,98.31,-0.0497070
39.49,415.069,11.432,98.285,-0.0508242
39.54,415.569,11.429,98.259,-0.0526919
39.59,416.069,11.426,98.232,-0.0539673
39.64,416.569,11.423,98.205,-0.0555657
39.69,417.069,11.419,98.177,-0.0570971
39.74,417.569,11.416,98.148,-0.0587131
39.79,418.069,11.413,98.118,-0.0606587
39.84,418.569,11.409,98.087,-0.0626029
39.89,419.069,11.405,98.056,-0.0650622
39.94,419.57,11.401,98.023,-0.0672250
39.99,420.07,11.397,97.988,-0.0694216
40.04,420.57,11.393,97.953,-0.0717029
40.09,421.07,11.389,97.917,-0.0738335
40.14,421.57,11.385,97.88,-0.0757867
40.19,422.07,11.38,97.841,-0.0782708
40.24,422.57,11.376,97.801,-0.0809698
40.29,423.07,11.371,97.76,-0.0835468
40.34,423.57,11.366,97.717,-0.0864576
40.39,424.07,11.361,97.673,-0.0907349
40.44,424.57,11.355,97.626,-0.0971207
40.49,425.071,11.349,97.575,-0.1038390
40.54,425.571,11.343,97.519,-0.1124730
40.59,426.071,11.336,97.458,-0.1251610
40.64,426.571,11.328,97.391,-0.1361180
40.69,427.071,11.32,97.321,-0.1452380
40.74,427.571,11.311,97.245,-0.1595870
40.79,428.071,11.302,97.165,-0.1616060
40.84,428.571,11.292,97.082,-0.1704130
40.89,429.071,11.282,96.995,-0.1825140
40.94,429.571,11.271,96.905,-0.1767570
40.99,430.071,11.261,96.813,-0.1890090
41.04,430.572,11.25,96.718,-0.1939820
41.09,431.072,11.238,96.62,-0.2040350
41.14,431.572,11.226,96.518,-0.2110930
41.19,432.072,11.214,96.414,-0.2106270
41.24,432.572,11.201,96.304,-0.2297020
41.29,433.072,11.188,96.189,-0.2389400
41.34,433.572,11.174,96.069,-0.2480330
41.39,434.072,11.16,95.946,-0.2519670
41.44,434.572,11.145,95.817,-0.2753210
41.49,435.072,11.129,95.682,-0.2718110
41.54,435.572,11.113,95.542,-0.2871360
41.59,436.073,11.096,95.396,-0.2940660
41.64,436.573,11.078,95.245,-0.3061170
41.69,437.073,11.06,95.088,-0.3207860
41.74,437.573,11.041,94.924,-0.3358520
41.79,438.073,11.021,94.754,-0.3539490
41.84,438.573,11,94.576,-0.3537090
41.89,439.073,10.979,94.392,-0.3787740
41.94,439.573,10.957,94.204,-0.3817960
41.99,440.073,10.935,94.014,-0.3844910
42.04,440.573,10.912,93.815,-0.4022410
42.09,441.073,10.89,93.627,-0.3561620
42.14,441.573,10.868,93.433,-0.4173860
42.19,442.074,10.844,93.231,-0.4054140
42.24,442.574,10.819,93.017,-0.4294020
42.29,443.074,10.792,92.786,-0.4628400
42.34,443.574,10.764,92.538,-0.5251680
42.39,444.074,10.732,92.263,-0.5778370
42.44,444.574,10.698,91.979,-0.5754350
42.49,445.074,10.665,91.688,-0.5971270
42.54,445.574,10.629,91.384,-0.6200830
42.59,446.074,10.593,91.071,-0.6488180
42.64,446.574,10.554,90.736,-0.6974840
42.69,447.074,10.511,90.368,-0.7687270
42.74,447.575,10.468,90.001,-0.7677660
42.79,448.075,10.428,89.655,-0.7163740
42.84,448.575,10.385,89.283,-0.8084990
42.89,449.075,10.336,88.863,-0.8850110
42.94,449.575,10.284,88.412,-0.9040680
42.99,450.075,10.23,87.949,-0.9252040
43.04,450.575,10.171,87.441,-1.00876
43.09,451.075,10.112,86.939,-1.01536
43.14,451.575,10.055,86.443,-0.9741580
43.19,452.075,9.992,85.903,-1.12271
43.24,452.575,9.925,85.331,-1.04719
43.29,453.076,9.862,84.788,-1.01093
43.34,453.576,9.799,84.246,-1.16011
43.39,454.076,9.724,83.6,-1.32406
43.44,454.576,9.643,82.903,-1.4356
43.49,455.076,9.56,82.187,-1.45681
43.54,455.576,9.481,81.511,-1.37551
43.59,456.076,9.4,80.816,-1.41898
43.64,456.576,9.319,80.117,-1.4861
43.69,457.076,9.228,79.34,-1.57597
43.74,457.576,9.134,78.533,-1.72047
43.79,458.076,9.034,77.667,-1.80721
43.84,458.577,8.93,76.775,-1.80333
43.89,459.077,8.825,75.87,-1.79003
43.95,459.577,8.709,74.876,-2.00963
44,460.077,8.593,73.881,-1.99583
44.05,460.577,8.475,72.866,-2.04141
44.1,461.077,8.353,71.818,-2.19679
44.15,461.577,8.223,70.698,-2.32605
44.2,462.077,8.087,69.524,-2.34179
44.25,462.577,7.95,68.349,-2.46873
44.3,463.077,7.807,67.119,-2.47259
44.35,463.577,7.66,65.852,-2.51632
44.4,464.078,7.512,64.579,-2.67469
44.45,464.578,7.356,63.241,-2.6984
44.5,465.078,7.196,61.869,-2.82353
44.55,465.578,7.029,60.432,-2.82875
44.6,466.078,6.857,58.953,-3.07188
44.65,466.578,6.675,57.387,-3.2307
44.7,467.078,6.494,55.835,-2.92991
44.75,467.578,6.316,54.3,-3.14202
44.8,468.078,6.131,52.712,-3.26143
44.85,468.578,5.939,51.059,-3.36697
44.9,469.078,5.72,49.18,-4.32668
44.95,469.578,5.482,47.134,-4.09381
44.99,470.079,5.253,45.161,-3.87132
45.04,470.579,5.028,43.224,-3.90966
45.09,471.079,4.811,41.36,-3.79963
45.14,471.579,4.598,39.535,-3.39306
45.2,472.079,4.392,37.762,-3.38104
45.25,472.579,4.19,36.022,-3.59316
45.3,473.079,3.98,34.216,-3.68205
45.35,473.579,3.768,32.395,-3.77452
45.39,474.079,3.562,30.62,-3.51223
45.44,474.579,3.357,28.866,-3.42722
45.49,475.079,3.157,27.14,-3.39386
45.54,475.58,2.96,25.446,-3.40785
45.59,476.08,2.762,23.747,-3.34784
45.64,476.58,2.543,21.865,-2.65013
45.69,477.08,2.385,20.501,-2.73761
45.74,477.58,2.228,19.152,-2.50646
45.79,478.08,2.077,17.857,-2.46125
45.84,478.58,1.933,16.62,-2.4919
45.89,479.08,1.788,15.376,-2.43843
45.94,479.58,1.654,14.223,-2.32212
45.99,480.08,1.522,13.084,-2.22501
46.04,480.58,1.397,12.011,-2.07631
46.09,481.081,1.28,11.008,-1.94384
46.14,481.581,1.172,10.077,-1.80955
46.19,482.081,1.072,9.218,-1.61356
46.24,482.581,0.9840000,8.46,-1.48236
46.29,483.081,0.9020000,7.751,-1.36972
46.34,483.581,0.8280000,7.117,-1.17593
46.39,484.081,0.7620000,6.551,-1.04657
46.44,484.581,0.7050000,6.058,-0.9263750
46.49,485.081,0.6550000,5.63,-0.8132840
46.54,485.581,0.6130000,5.266,-0.6658730
46.59,486.081,0.5780000,4.968,-0.5747240
46.64,486.582,0.5480000,4.708,-0.4870030
46.69,487.082,0.5230000,4.496,-0.3906410
46.74,487.582,0.5030000,4.324,-0.3117850
46.79,488.082,0.4870000,4.189,-0.2348870
46.84,488.582,0.4750000,4.086,-0.1765600
46.89,489.082,0.4660000,4.01,-0.1316720
46.94,489.582,0.4600000,3.955,-0.0917234
46.99,490.082,0.4560000,3.919,-0.0600009
47.04,490.582,0.4530000,3.891,-0.0576004
47.09,491.082,0.4490000,3.862,-0.0560724
47.14,491.582,0.4460000,3.834,-0.0518800
47.19,492.083,0.4430000,3.81,-0.0454362
47.24,492.583,0.4410000,3.789,-0.0396166
47.29,493.083,0.4390000,3.771,-0.0330246
47.34,493.583,0.4370000,3.756,-0.0273336
47.39,494.083,0.4350000,3.744,-0.0228519
47.44,494.583,0.4340000,3.733,-0.0186000
47.49,495.083,0.4330000,3.725,-0.0145896
47.54,495.583,0.4320000,3.718,-0.0117101
47.59,496.083,0.4320000,3.713,-0.0098622
47.64,496.583,0.4310000,3.709,-0.0079552
47.7,497.083,0.4310000,3.705,-0.0060446
47.75,497.583,0.4310000,3.703,-0.0046343
47.8,498.084,0.4300000,3.701,-0.0035271
47.85,498.584,0.4300000,3.699,-0.0030935
47.9,499.084,0.4300000,3.698,-0.0023681
47.95,499.584,0.4300000,3.697,-0.0010459
48,500.084,0.4300000,3.696,-0.0009661
48.05,500.584,0.4300000,3.696,-0.0003647
48.1,501.084,0.4300000,3.695,-0.0006937
48.15,501.584,0.4300000,3.695,-0.0003272
48.2,502.084,0.4300000,3.695,-0.0002576
48.24,502.584,0.4300000,3.694,-0.0003817
48.29,503.084,0.4300000,3.694,0.0000029
48.34,503.585,0.4300000,3.694,-0.0001740
48.39,504.085,0.4300000,3.695,0.0000200
48.44,504.585,0.4300000,3.695,0.0002112
48.49,505.085,0.4300000,3.695,-0.0000585
48.54,505.585,0.4300000,3.695,0.0000428
48.59,506.085,0.4300000,3.695,0.0004344
48.64,506.585,0.4300000,3.695,0.0002158
48.69,507.085,0.4300000,3.695,0.0002687
48.74,507.585,0.4300000,3.695,0.0004030
48.79,508.085,0.4300000,3.695,0.0005129
48.84,508.585,0.4300000,3.695,0.0001858
48.89,509.086,0.4300000,3.695,0.0002557
48.94,509.586,0.4300000,3.696,0.0003142
48.99,510.086,0.4300000,3.696,0.0001585
49.04,510.586,0.4300000,3.696,0.0003157
49.09,511.086,0.4300000,3.696,0.0001200
49.14,511.586,0.4300000,3.696,-0.0000929
49.19,512.086,0.4300000,3.696,0.0001143
49.24,512.586,0.4300000,3.696,0.0001560
49.29,513.086,0.4300000,3.696,0.0001615
49.34,513.586,0.4300000,3.696,0.0006461
49.39,514.086,0.4300000,3.696,0.0004472
49.44,514.587,0.4300000,3.696,0.0000743
49.49,515.087,0.4300000,3.696,0.0000228
49.54,515.587,0.4300000,3.697,0.0004078
49.59,516.087,0.4300000,3.697,0.0002919
49.64,516.587,0.4300000,3.697,0.0001773
49.69,517.087,0.4300000,3.697,0.0001787
49.74,517.587,0.4300000,3.697,0.0001628
49.79,518.087,0.4300000,3.697,-0.0000542
49.84,518.587,0.4300000,3.697,0.0004175
49.89,519.087,0.4300000,3.697,-0.0001787
49.94,519.587,0.4300000,3.697,0.0002229
49.99,520.088,0.4300000,3.697,0.0000129
50.04,520.588,0.4300000,3.697,0.0004884
50.09,521.088,0.4300000,3.698,0.0003516
50.14,521.588,0.4300000,3.698,0.0003930
50.19,522.088,0.4300000,3.698,0.0002857
50.24,522.588,0.4300000,3.698,0.0000071
50.29,523.088,0.4300000,3.698,-0.0000628
50.34,523.588,0.4300000,3.698,-0.0000701
50.39,524.088,0.4300000,3.698,0.0000886
50.44,524.588,0.4300000,3.698,-0.0000501
50.49,525.088,0.4300000,3.698,0.0002773
50.54,525.588,0.4300000,3.698,0.0004232
50.59,526.089,0.4300000,3.699,0.0010048
50.64,526.589,0.4300000,3.699,0.0004286
50.69,527.089,0.4300000,3.699,0.0001001
50.74,527.589,0.4300000,3.699,0.0000686
50.79,528.089,0.4300000,3.699,0.0005270
50.84,528.589,0.4300000,3.699,0.0004999
50.89,529.089,0.4300000,3.699,-0.0001901
50.94,529.589,0.4300000,3.699,-0.0001286
50.99,530.089,0.4300000,3.699,0.0003074
51.04,530.589,0.4300000,3.699,0.0001743
51.09,531.089,0.4300000,3.699,0.0000813
51.14,531.59,0.4300000,3.699,-0.0001730
51.19,532.09,0.4300000,3.699,0.0003845
51.24,532.59,0.4300000,3.699,0.0001644
51.29,533.09,0.4300000,3.7,0.0001157
51.34,533.59,0.4300000,3.7,-0.0001989
51.39,534.09,0.4300000,3.7,0.0004722
51.44,534.59,0.4300000,3.7,0.0001816
51.49,535.09,0.4300000,3.7,0.0005280
51.54,535.59,0.4300000,3.7,0.0002990
51.59,536.09,0.4300000,3.7,0.0004398
51.64,536.59,0.4300000,3.7,0.0004432
51.69,537.091,0.4300000,3.7,0.0003642
51.74,537.591,0.4300000,3.7,0.0003885
51.79,538.091,0.4300000,3.701,0.0003205
51.84,538.591,0.4300000,3.701,0.0002700
51.89,539.091,0.4300000,3.701,-0.0000372
51.94,539.591,0.4300000,3.701,-0.0000114
51.99,540.091,0.4300000,3.701,0.0000072
52.04,540.591,0.4300000,3.701,0.0002201
52.09,541.091,0.4300000,3.701,0.0000901
52.14,541.591,0.4310000,3.701,-0.0001129
52.19,542.091,0.4310000,3.701,0.0003416
52.24,542.592,0.4310000,3.701,0.0001271
52.29,543.092,0.4310000,3.701,-0.0000615
52.34,543.592,0.4310000,3.702,-0.0002103
52.39,544.092,0.4310000,3.702,0.0003601
52.44,544.592,0.4310000,3.702,0.0006038
52.49,545.092,0.4310000,3.702,0.0007326
52.54,545.592,0.4310000,3.702,0.0005077
52.59,546.092,0.4310000,3.702,0.0000873
52.64,546.592,0.4310000,3.702,0.0002458
52.69,547.092,0.4310000,3.702,0.0003259
52.74,547.592,0.4310000,3.702,0.0006971
52.79,548.093,0.4310000,3.703,0.0005370
52.84,548.593,0.4310000,3.703,0.0002857
52.89,549.093,0.4310000,3.703,0.0003260
52.94,549.593,0.4310000,3.703,0.0003516
52.99,550.093,0.4310000,3.703,0.0002785
53.04,550.593,0.4310000,3.703,0.0003574
53.09,551.093,0.4310000,3.703,0.0002232
53.14,551.593,0.4310000,3.703,0.0001100
53.19,552.093,0.4310000,3.704,0.0004278
53.24,552.593,0.4310000,3.704,0.0002989
53.29,553.093,0.4310000,3.704,0.0001272
53.34,553.593,0.4310000,3.704,0.0006503
53.39,554.094,0.4310000,3.704,0.0007642
53.44,554.594,0.4310000,3.705,-0.0000286
53.49,555.094,0.4310000,3.705,0.0001458
53.54,555.594,0.4310000,3.705,-0.0000086
53.59,556.094,0.4310000,3.705,0.0002043
53.64,556.594,0.4310000,3.705,0.0004671
53.69,557.094,0.4310000,3.705,0.0004099
53.74,557.594,0.4310000,3.706,-0.0001013
53.79,558.094,0.4310000,3.706,0.0002039
53.84,558.594,0.4310000,3.706,-0.0000428
53.89,559.094,0.4310000,3.706,0.0003069
53.94,559.595,0.4310000,3.706,0.0005012
53.99,560.095,0.4310000,3.706,0.0008698
54.04,560.595,0.4310000,3.707,0.0003685
54.09,561.095,0.4310000,3.707,0.0006143
54.14,561.595,0.4310000,3.707,0.0007930
54.19,562.095,0.4310000,3.707,0.0001587
54.24,562.595,0.4310000,3.707,0.0005681
54.29,563.095,0.4310000,3.708,0.0001345
54.34,563.595,0.4310000,3.708,0.0005089
54.39,564.095,0.4310000,3.708,-0.0001085
54.44,564.595,0.4310000,3.708,-0.0000300
54.49,565.096,0.4310000,3.708,0.0000043
54.54,565.596,0.4310000,3.708,0.0004432
54.59,566.096,0.4310000,3.709,0.0005071
54.64,566.596,0.4310000,3.709,0.0002086
54.69,567.096,0.4310000,3.709,0.0003648
54.74,567.596,0.4310000,3.709,-0.0001374
54.79,568.096,0.4310000,3.71,0.0007519
54.84,568.596,0.4310000,3.71,0.0004164
54.89,569.096,0.4320000,3.71,0.0001359
54.94,569.596,0.4320000,3.71,0.0001216
54.99,570.096,0.4320000,3.71,0.0002432
55.04,570.597,0.4320000,3.71,0.0009644
55.09,571.097,0.4320000,3.711,0.0004979
55.14,571.597,0.4320000,3.711,0.0004164
55.19,572.097,0.4320000,3.711,0.0000000
55.24,572.597,0.4320000,3.711,0.0000157
55.29,573.097,0.4320000,3.711,0.0004326
55.34,573.597,0.4320000,3.712,0.0000715
55.39,574.097,0.4320000,3.712,0.0008033
55.44,574.597,0.4320000,3.712,0.0004126
55.49,575.097,0.4320000,3.712,0.0004293
55.54,575.597,0.4320000,3.713,0.0005452
55.59,576.098,0.4320000,3.713,0.0002001
55.64,576.598,0.4320000,3.713,0.0003942
55.69,577.098,0.4320000,3.714,0.0006907
55.74,577.598,0.4320000,3.714,0.0004527
55.79,578.098,0.4320000,3.714,0.0004021
55.84,578.598,0.4320000,3.714,0.0002132
55.89,579.098,0.4320000,3.714,0.0004564
55.94,579.598,0.4320000,3.714,0.0002516
55.99,580.098,0.4320000,3.715,0.0007011
56.04,580.598,0.4320000,3.715,0.0003447
56.09,581.098,0.4320000,3.715,-0.0000215
56.14,581.598,0.4320000,3.715,0.0004359
56.19,582.099,0.4320000,3.715,0.0005518
56.24,582.599,0.4320000,3.715,0.0002530
56.29,583.099,0.4320000,3.715,0.0004919
56.34,583.599,0.4320000,3.716,0.0002302
56.39,584.099,0.4320000,3.716,0.0001971
56.44,584.599,0.4320000,3.716,0.0007970
56.49,585.099,0.4320000,3.716,0.0004981
56.54,585.599,0.4320000,3.716,0.0005598
56.59,586.099,0.4320000,3.717,0.0003956
56.64,586.599,0.4320000,3.717,0.0003171
56.69,587.099,0.4320000,3.717,0.0000258
56.74,587.6,0.4320000,3.717,0.0001400
56.79,588.1,0.4320000,3.717,0.0004487
56.84,588.6,0.4320000,3.717,0.0004891
56.89,589.1,0.4320000,3.717,0.0001144
56.94,589.6,0.4320000,3.718,0.0007118
56.98,590,0.4320000,3.718,0.0005842