File: R/rHDPE_App/app/www/Output/TGA/Condensed_Data/Resin23_1_.csv
0.8800000,30,13.048,100.036,0.0089804
0.9400000,30.5001,13.048,100.038,0.0044434
1,31.0002,13.048,100.04,0.0033379
1.06,31.5003,13.048,100.042,0.0059488
1.12,32.0004,13.049,100.043,0.0067668
1.18,32.5004,13.049,100.044,0.0042879
1.24,33.0005,13.049,100.046,-0.0011514
1.29,33.5006,13.049,100.047,0.0056427
1.35,34.0007,13.049,100.048,0.0004618
1.41,34.5008,13.049,100.049,0.0015762
1.46,35.0009,13.05,100.05,0.0016670
1.52,35.501,13.05,100.051,0.0010037
1.57,36.0011,13.05,100.052,0.0013978
1.63,36.5012,13.05,100.053,0.0038240
1.68,37.0013,13.05,100.053,-0.0002470
1.73,37.5013,13.05,100.054,0.0033987
1.79,38.0014,13.05,100.055,0.0013249
1.84,38.5015,13.05,100.056,-0.0000001
1.89,39.0016,13.05,100.057,0.0029278
1.95,39.5017,13.051,100.058,0.0017516
2,40.0018,13.051,100.058,0.0006314
2.06,40.5019,13.051,100.059,0.0030040
2.11,41.002,13.051,100.06,0.0014508
2.16,41.5021,13.051,100.061,0.0005791
2.21,42.0021,13.051,100.062,0.0023612
2.27,42.5022,13.051,100.062,0.0015875
2.32,43.0023,13.051,100.063,0.0011535
2.37,43.5024,13.051,100.064,0.0022557
2.42,44.0025,13.051,100.065,0.0023976
2.48,44.5026,13.052,100.065,0.0018200
2.53,45.0027,13.052,100.066,0.0007177
2.58,45.5028,13.052,100.067,0.0020548
2.63,46.0029,13.052,100.068,0.0025292
2.69,46.5029,13.052,100.068,0.0010012
2.74,47.003,13.052,100.069,0.0006190
2.79,47.5031,13.052,100.07,0.0015212
2.84,48.0032,13.052,100.07,0.0019464
2.89,48.5033,13.052,100.071,0.0018959
2.94,49.0034,13.052,100.072,0.0010420
2.99,49.5035,13.053,100.073,0.0012303
3.05,50.0036,13.053,100.074,0.0018424
3.1,50.5037,13.053,100.074,0.0018884
3.15,51.0038,13.053,100.075,0.0007542
3.2,51.5038,13.053,100.076,0.0011777
3.25,52.0039,13.053,100.076,0.0012708
3.31,52.504,13.053,100.077,0.0015516
3.36,53.0041,13.053,100.078,0.0017851
3.41,53.5042,13.053,100.078,0.0013141
3.46,54.0043,13.053,100.079,0.0008440
3.51,54.5044,13.053,100.079,0.0011718
3.56,55.0045,13.054,100.08,0.0014042
3.61,55.5046,13.054,100.081,0.0015433
3.66,56.0046,13.054,100.082,0.0010748
3.71,56.5047,13.054,100.082,0.0013078
3.76,57.0048,13.054,100.083,0.0008868
3.82,57.5049,13.054,100.084,0.0009793
3.87,58.005,13.054,100.084,0.0013049
3.92,58.5051,13.054,100.085,0.0017220
3.97,59.0052,13.054,100.086,0.0016277
4.02,59.5053,13.054,100.086,0.0013943
4.07,60.0054,13.054,100.087,0.0014859
4.12,60.5054,13.054,100.088,0.0012528
4.17,61.0055,13.055,100.088,0.0012510
4.22,61.5056,13.055,100.089,0.0012964
4.27,62.0057,13.055,100.089,0.0013419
4.32,62.5058,13.055,100.09,0.0013414
4.37,63.0059,13.055,100.091,0.0010636
4.43,63.506,13.055,100.091,0.0011552
4.48,64.0061,13.055,100.092,0.0010623
4.53,64.5062,13.055,100.092,0.0012925
4.58,65.0063,13.055,100.093,0.0009228
4.63,65.5063,13.055,100.093,0.0010610
4.68,66.0064,13.055,100.094,0.0011525
4.73,66.5065,13.055,100.095,0.0011979
4.78,67.0066,13.055,100.095,0.0012441
4.83,67.5067,13.056,100.096,0.0016110
4.88,68.0068,13.056,100.096,0.0010587
4.93,68.5069,13.056,100.097,0.0011966
4.98,69.007,13.056,100.097,0.0009201
5.03,69.5071,13.056,100.098,0.0012872
5.08,70.0071,13.056,100.098,0.0012870
5.13,70.5072,13.056,100.099,0.0010575
5.18,71.0073,13.056,100.1,0.0008731
5.23,71.5074,13.056,100.1,0.0010094
5.28,72.0075,13.056,100.101,0.0007336
5.33,72.5076,13.056,100.101,0.0013293
5.38,73.0077,13.056,100.101,0.0012832
5.43,73.5078,13.056,100.102,0.0010091
5.48,74.0079,13.056,100.102,0.0005507
5.53,74.5079,13.056,100.103,0.0005965
5.58,75.008,13.057,100.103,0.0009171
5.63,75.5081,13.057,100.104,0.0010092
5.68,76.0082,13.057,100.104,0.0006426
5.73,76.5083,13.057,100.104,0.0008254
5.78,77.0084,13.057,100.105,0.0007334
5.83,77.5085,13.057,100.105,0.0009626
5.88,78.0086,13.057,100.105,0.0011457
5.93,78.5087,13.057,100.106,0.0003666
5.98,79.0088,13.057,100.106,0.0006864
6.03,79.5088,13.057,100.106,0.0007781
6.08,80.0089,13.057,100.107,0.0008238
6.13,80.509,13.057,100.107,0.0001831
6.18,81.0091,13.057,100.107,0.0007791
6.23,81.5092,13.057,100.108,0.0003667
6.28,82.0093,13.057,100.108,0.0006878
6.33,82.5094,13.057,100.108,0.0006413
6.38,83.0095,13.057,100.109,-0.0007298
6.43,83.5096,13.057,100.109,0.0008689
6.48,84.0096,13.057,100.109,0.0013272
6.53,84.5097,13.057,100.109,0.0008252
6.58,85.0098,13.057,100.11,0.0008255
6.63,85.5099,13.057,100.11,0.0012388
6.68,86.01,13.057,100.111,0.0008257
6.73,86.5101,13.058,100.111,0.0009174
6.78,87.0102,13.058,100.111,0.0011010
6.83,87.5103,13.058,100.112,0.0007334
6.88,88.0104,13.058,100.112,0.0004584
6.93,88.5104,13.058,100.112,0.0005959
6.98,89.0105,13.058,100.112,0.0000916
7.03,89.5106,13.058,100.113,0.0002746
7.08,90.0107,13.058,100.113,0.0002288
7.13,90.5108,13.058,100.113,0.0003203
7.18,91.0109,13.058,100.113,0.0001829
7.23,91.511,13.058,100.114,0.0001829
7.28,92.0111,13.058,100.114,0.0001370
7.33,92.5112,13.058,100.114,0.0000912
7.38,93.0113,13.058,100.114,0.0001369
7.43,93.5113,13.058,100.114,0.0003653
7.48,94.0114,13.058,100.114,0.0002284
7.53,94.5115,13.058,100.114,0.0005951
7.58,95.0116,13.058,100.115,0.0005500
7.63,95.5117,13.058,100.115,0.0005046
7.68,96.0118,13.058,100.115,0.0006423
7.73,96.5119,13.058,100.115,0.0003664
7.78,97.012,13.058,100.115,0.0002289
7.83,97.5121,13.058,100.115,0.0000000
7.88,98.0121,13.058,100.115,0.0005498
7.93,98.5122,13.058,100.116,0.0002291
7.98,99.0123,13.058,100.116,0.0003666
8.03,99.5124,13.058,100.116,0.0000916
8.08,100.013,13.058,100.116,0.0000916
8.13,100.513,13.058,100.116,0.0003204
8.18,101.013,13.058,100.116,0.0001373
8.23,101.513,13.058,100.116,-0.0000457
8.28,102.013,13.058,100.116,0.0000915
8.33,102.513,13.058,100.117,0.0005032
8.38,103.013,13.058,100.117,0.0002287
8.43,103.513,13.058,100.117,0.0000915
8.48,104.013,13.058,100.117,0.0004120
8.53,104.513,13.058,100.117,0.0000000
8.58,105.013,13.058,100.117,0.0002747
8.63,105.513,13.058,100.117,-0.0002290
8.68,106.014,13.058,100.116,-0.0000000
8.73,106.514,13.058,100.116,0.0001375
8.78,107.014,13.058,100.116,0.0000917
8.83,107.514,13.058,100.116,0.0001375
8.88,108.014,13.058,100.116,0.0001833
8.93,108.514,13.058,100.116,0.0000000
8.98,109.014,13.058,100.116,0.0000000
9.03,109.514,13.058,100.116,-0.0001375
9.08,110.014,13.058,100.116,0.0000458
9.13,110.514,13.058,100.116,0.0003209
9.18,111.014,13.058,100.116,0.0000457
9.23,111.515,13.058,100.116,-0.0002742
9.28,112.015,13.058,100.116,0.0000914
9.33,112.515,13.058,100.116,0.0001830
9.38,113.015,13.058,100.116,-0.0002291
9.43,113.515,13.058,100.116,-0.0001836
9.48,114.015,13.058,100.115,-0.0005051
9.53,114.515,13.058,100.115,-0.0004584
9.58,115.015,13.058,100.115,-0.0003664
9.63,115.515,13.058,100.115,-0.0004121
9.68,116.015,13.058,100.115,-0.0004578
9.73,116.515,13.058,100.115,-0.0009622
9.78,117.016,13.058,100.115,-0.0000917
9.83,117.516,13.058,100.115,-0.0003668
9.88,118.016,13.058,100.115,0.0001831
9.93,118.516,13.058,100.115,-0.0001374
9.98,119.016,13.058,100.115,-0.0004124
10.03,119.516,13.058,100.114,-0.0007339
10.08,120.016,13.058,100.114,-0.0004127
10.13,120.516,13.058,100.114,-0.0003217
10.18,121.016,13.058,100.114,-0.0000920
10.23,121.516,13.058,100.114,0.0002757
10.28,122.016,13.058,100.114,0.0000000
10.33,122.517,13.058,100.114,0.0001376
10.38,123.017,13.058,100.114,0.0000000
10.43,123.517,13.058,100.114,0.0000000
10.48,124.017,13.058,100.114,-0.0001376
10.53,124.517,13.058,100.114,-0.0000917
10.58,125.017,13.058,100.114,0.0001373
10.63,125.517,13.058,100.114,-0.0002286
10.68,126.017,13.058,100.114,-0.0002284
10.73,126.517,13.058,100.114,-0.0002290
10.78,127.017,13.058,100.113,-0.0000000
10.83,127.517,13.058,100.113,0.0001835
10.88,128.018,13.058,100.113,-0.0025955
10.93,128.518,13.058,100.113,-0.0001831
10.98,129.018,13.058,100.113,0.0001375
11.03,129.518,13.058,100.113,0.0000001
11.08,130.018,13.058,100.113,0.0001373
11.13,130.518,13.058,100.113,0.0000000
11.18,131.018,13.058,100.113,-0.0002749
11.23,131.518,13.058,100.113,-0.0000458
11.28,132.018,13.058,100.113,0.0000000
11.33,132.518,13.058,100.113,-0.0000919
11.38,133.018,13.058,100.113,-0.0000917
11.43,133.518,13.058,100.113,-0.0003204
11.48,134.019,13.058,100.113,-0.0004117
11.53,134.519,13.058,100.113,-0.0000915
11.58,135.019,13.058,100.112,-0.0005027
11.63,135.519,13.058,100.112,-0.0005481
11.68,136.019,13.058,100.112,-0.0006390
11.73,136.519,13.058,100.111,-0.0010495
11.78,137.019,13.057,100.111,-0.0018255
11.83,137.519,13.057,100.11,-0.0020511
11.88,138.019,13.057,100.109,-0.0020989
11.93,138.519,13.057,100.108,-0.0028647
11.98,139.019,13.057,100.107,-0.0024557
12.03,139.52,13.057,100.106,-0.0025005
12.08,140.02,13.057,100.104,-0.0025501
12.13,140.52,13.057,100.103,-0.0026380
12.18,141.02,13.056,100.102,-0.0028621
12.23,141.52,13.056,100.101,-0.0022328
12.28,142.02,13.056,100.1,-0.0031356
12.33,142.52,13.056,100.099,-0.0022748
12.38,143.02,13.056,100.098,-0.0022779
12.43,143.52,13.056,100.096,-0.0019644
12.48,144.02,13.055,100.095,-0.0023783
12.53,144.52,13.055,100.094,-0.0021994
12.58,145.021,13.055,100.093,-0.0022008
12.63,145.521,13.055,100.092,-0.0017868
12.68,146.021,13.055,100.091,-0.0019262
12.73,146.521,13.055,100.091,-0.0018813
12.78,147.021,13.055,100.09,-0.0014695
12.83,147.521,13.055,100.089,-0.0018372
12.88,148.021,13.055,100.088,-0.0018340
12.93,148.521,13.054,100.087,-0.0020141
12.98,149.021,13.054,100.086,-0.0016015
13.03,149.521,13.054,100.085,-0.0014194
13.08,150.021,13.054,100.085,-0.0016058
13.13,150.522,13.054,100.084,-0.0016060
13.18,151.022,13.054,100.083,-0.0014237
13.23,151.522,13.054,100.082,-0.0015182
13.28,152.022,13.054,100.081,-0.0015647
13.33,152.522,13.054,100.08,-0.0014729
13.38,153.022,13.053,100.08,-0.0009661
13.43,153.522,13.053,100.079,-0.0012408
13.48,154.022,13.053,100.078,-0.0011465
13.53,154.522,13.053,100.077,-0.0013743
13.58,155.022,13.053,100.076,-0.0016040
13.63,155.522,13.053,100.076,-0.0016079
13.68,156.023,13.053,100.075,-0.0013789
13.73,156.523,13.053,100.074,-0.0014256
13.78,157.023,13.053,100.073,-0.0013783
13.83,157.523,13.053,100.073,-0.0017423
13.88,158.023,13.052,100.072,-0.0018312
13.93,158.523,13.052,100.071,-0.0016499
13.98,159.023,13.052,100.07,-0.0018327
14.03,159.523,13.052,100.07,-0.0015568
14.08,160.023,13.052,100.069,-0.0017849
14.13,160.523,13.052,100.068,-0.0018357
14.18,161.023,13.052,100.067,-0.0018391
14.23,161.523,13.052,100.066,-0.0027452
14.28,162.024,13.052,100.065,-0.0020623
14.33,162.524,13.051,100.064,-0.0021140
14.38,163.024,13.051,100.063,-0.0017007
14.44,163.524,13.051,100.062,-0.0020171
14.49,164.024,13.051,100.061,-0.0017435
14.54,164.524,13.051,100.06,-0.0021560
14.59,165.024,13.051,100.059,-0.0025229
14.64,165.524,13.051,100.058,-0.0023324
14.69,166.024,13.051,100.057,-0.0023354
14.74,166.524,13.05,100.056,-0.0023738
14.79,167.024,13.05,100.055,-0.0022821
14.84,167.525,13.05,100.054,-0.0022415
14.89,168.025,13.05,100.053,-0.0026581
14.94,168.525,13.05,100.052,-0.0024305
14.99,169.025,13.05,100.05,-0.0023831
15.04,169.525,13.049,100.049,-0.0021560
15.09,170.025,13.049,100.048,-0.0025188
15.14,170.525,13.049,100.047,-0.0023816
15.19,171.025,13.049,100.046,-0.0022876
15.24,171.525,13.049,100.045,-0.0023314
15.29,172.025,13.049,100.043,-0.0020618
15.34,172.525,13.049,100.042,-0.0026990
15.39,173.026,13.048,100.041,-0.0027930
15.44,173.526,13.048,100.04,-0.0025652
15.49,174.026,13.048,100.038,-0.0027124
15.54,174.526,13.048,100.037,-0.0023934
15.59,175.026,13.048,100.036,-0.0022035
15.64,175.526,13.048,100.035,-0.0027964
15.69,176.026,13.047,100.033,-0.0019287
15.74,176.526,13.047,100.032,-0.0029817
15.79,177.026,13.047,100.031,-0.0022894
15.84,177.526,13.047,100.03,-0.0023409
15.89,178.026,13.047,100.028,-0.0026625
15.94,178.527,13.047,100.027,-0.0031610
15.99,179.027,13.046,100.025,-0.0027900
16.04,179.527,13.046,100.024,-0.0026973
16.09,180.027,13.046,100.023,-0.0027007
16.14,180.527,13.046,100.021,-0.0025190
16.19,181.027,13.046,100.02,-0.0024767
16.24,181.527,13.045,100.018,-0.0025229
16.29,182.027,13.045,100.017,-0.0032027
16.34,182.527,13.045,100.015,-0.0027410
16.39,183.027,13.045,100.014,-0.0024658
16.44,183.527,13.045,100.012,-0.0027440
16.49,184.028,13.044,100.011,-0.0030159
16.54,184.528,13.044,100.009,-0.0029715
16.59,185.028,13.044,100.008,-0.0031116
16.64,185.528,13.044,100.006,-0.0034357
16.69,186.028,13.044,100.005,-0.0032614
16.74,186.528,13.043,100.003,-0.0034030
16.79,187.028,13.043,100.001,-0.0032170
16.84,187.528,13.043,100,-0.0032154
16.89,188.028,13.043,99.998,-0.0033100
16.94,188.528,13.043,99.997,-0.0035731
16.99,189.028,13.042,99.995,-0.0031187
17.04,189.528,13.042,99.993,-0.0036245
17.09,190.029,13.042,99.992,-0.0033021
17.14,190.529,13.042,99.99,-0.0046136
17.19,191.029,13.042,99.988,-0.0035176
17.24,191.529,13.041,99.987,-0.0035173
17.29,192.029,13.041,99.985,-0.0030239
17.34,192.529,13.041,99.984,-0.0034420
17.39,193.029,13.041,99.982,-0.0030779
17.44,193.529,13.04,99.98,-0.0038014
17.49,194.029,13.04,99.978,-0.0036697
17.54,194.529,13.04,99.977,-0.0037539
17.59,195.029,13.04,99.975,-0.0037529
17.64,195.53,13.04,99.973,-0.0037132
17.69,196.03,13.039,99.971,-0.0035354
17.74,196.53,13.039,99.97,-0.0034423
17.79,197.03,13.039,99.968,-0.0039009
17.84,197.53,13.039,99.966,-0.0034404
17.89,198.03,13.038,99.964,-0.0035796
17.94,198.53,13.038,99.962,-0.0040732
17.99,199.03,13.038,99.96,-0.0039367
18.04,199.53,13.038,99.958,-0.0039313
18.09,200.03,13.037,99.957,-0.0037453
18.14,200.53,13.037,99.955,-0.0037504
18.19,201.031,13.037,99.953,-0.0034294
18.24,201.531,13.037,99.951,-0.0038494
18.29,202.031,13.036,99.949,-0.0039388
18.34,202.531,13.036,99.947,-0.0041686
18.39,203.031,13.036,99.945,-0.0040855
18.44,203.531,13.036,99.944,-0.0042629
18.49,204.031,13.035,99.942,-0.0040740
18.54,204.531,13.035,99.94,-0.0039497
18.59,205.031,13.035,99.938,-0.0047248
18.64,205.531,13.035,99.936,-0.0042151
18.69,206.031,13.034,99.934,-0.0038444
18.74,206.532,13.034,99.932,-0.0037064
18.79,207.032,13.034,99.93,-0.0040788
18.84,207.532,13.034,99.928,-0.0044716
18.89,208.032,13.033,99.926,-0.0043013
18.94,208.532,13.033,99.924,-0.0043495
18.99,209.032,13.033,99.922,-0.0042571
19.04,209.532,13.033,99.92,-0.0034882
19.09,210.032,13.032,99.918,-0.0038628
19.14,210.532,13.032,99.916,-0.0039964
19.19,211.032,13.032,99.914,-0.0041801
19.24,211.532,13.032,99.912,-0.0043630
19.29,212.033,13.031,99.91,-0.0042661
19.34,212.533,13.031,99.908,-0.0045812
19.39,213.033,13.031,99.906,-0.0042594
19.44,213.533,13.031,99.904,-0.0038455
19.49,214.033,13.03,99.902,-0.0041967
19.54,214.533,13.03,99.9,-0.0039241
19.59,215.033,13.03,99.898,-0.0040725
19.64,215.533,13.029,99.896,-0.0043964
19.69,216.033,13.029,99.893,-0.0044434
19.74,216.533,13.029,99.891,-0.0043538
19.79,217.033,13.029,99.889,-0.0048042
19.84,217.533,13.028,99.887,-0.0044913
19.89,218.034,13.028,99.885,-0.0043108
19.94,218.534,13.028,99.883,-0.0045829
19.99,219.034,13.027,99.881,-0.0049908
20.04,219.534,13.027,99.878,-0.0044463
20.09,220.034,13.027,99.876,-0.0042661
20.14,220.534,13.027,99.874,-0.0045847
20.19,221.034,13.026,99.872,-0.0039850
20.24,221.534,13.026,99.87,-0.0040323
20.29,222.034,13.026,99.868,-0.0037537
20.34,222.534,13.026,99.866,-0.0038472
20.39,223.034,13.025,99.864,-0.0040311
20.44,223.535,13.025,99.862,-0.0040330
20.49,224.035,13.025,99.859,-0.0045247
20.54,224.535,13.024,99.857,-0.0042028
20.59,225.035,13.024,99.855,-0.0041704
20.64,225.535,13.024,99.853,-0.0048090
20.69,226.035,13.024,99.851,-0.0046245
20.74,226.535,13.023,99.848,-0.0041678
20.79,227.035,13.023,99.846,-0.0047161
20.84,227.535,13.023,99.844,-0.0047248
20.89,228.035,13.022,99.842,-0.0047226
20.94,228.535,13.022,99.84,-0.0046776
20.99,229.036,13.022,99.837,-0.0044049
21.04,229.536,13.022,99.835,-0.0044508
21.09,230.036,13.021,99.833,-0.0047676
21.14,230.536,13.021,99.831,-0.0047697
21.19,231.036,13.021,99.829,-0.0042183
21.24,231.536,13.02,99.826,-0.0043542
21.29,232.036,13.02,99.824,-0.0044463
21.34,232.536,13.02,99.822,-0.0044373
21.39,233.036,13.02,99.82,-0.0045467
21.44,233.536,13.019,99.818,-0.0045028
21.49,234.036,13.019,99.815,-0.0045713
21.54,234.537,13.019,99.813,-0.0046682
21.59,235.037,13.018,99.811,-0.0049706
21.64,235.537,13.018,99.809,-0.0034656
21.69,236.037,13.018,99.807,-0.0036765
21.74,236.537,13.018,99.805,-0.0042857
21.79,237.037,13.017,99.803,-0.0039286
21.84,237.537,13.017,99.801,-0.0042573
21.89,238.037,13.017,99.799,-0.0037910
21.94,238.537,13.017,99.797,-0.0043847
21.99,239.037,13.016,99.795,-0.0047352
22.04,239.537,13.016,99.793,-0.0044859
22.09,240.038,13.016,99.79,-0.0047053
22.14,240.538,13.015,99.788,-0.0045746
22.19,241.038,13.015,99.786,-0.0044843
22.24,241.538,13.015,99.784,-0.0043932
22.29,242.038,13.015,99.781,-0.0042105
22.34,242.538,13.014,99.779,-0.0048033
22.39,243.038,13.014,99.777,-0.0046512
22.44,243.538,13.014,99.775,-0.0041496
22.49,244.038,13.013,99.773,-0.0044373
22.54,244.538,13.013,99.77,-0.0042117
22.59,245.038,13.013,99.768,-0.0042610
22.64,245.538,13.013,99.766,-0.0044442
22.69,246.039,13.012,99.764,-0.0041716
22.74,246.539,13.012,99.761,-0.0044455
22.79,247.039,13.012,99.759,-0.0044017
22.84,247.539,13.011,99.757,-0.0044851
22.89,248.039,13.011,99.755,-0.0040732
22.94,248.539,13.011,99.752,-0.0044455
22.99,249.039,13.01,99.75,-0.0044872
23.04,249.539,13.01,99.748,-0.0047554
23.09,250.039,13.01,99.746,-0.0046648
23.14,250.539,13.01,99.743,-0.0042544
23.19,251.039,13.009,99.741,-0.0049711
23.24,251.54,13.009,99.739,-0.0044504
23.29,252.04,13.009,99.736,-0.0040908
23.34,252.54,13.008,99.734,-0.0039438
23.39,253.04,13.008,99.732,-0.0051811
23.44,253.54,13.008,99.73,-0.0045788
23.49,254.04,13.007,99.727,-0.0046288
23.55,254.54,13.007,99.725,-0.0049519
23.6,255.04,13.007,99.723,-0.0050380
23.65,255.54,13.007,99.72,-0.0048099
23.7,256.04,13.006,99.718,-0.0046186
23.75,256.54,13.006,99.716,-0.0043475
23.8,257.041,13.006,99.714,-0.0039930
23.85,257.541,13.005,99.711,-0.0044552
23.9,258.041,13.005,99.709,-0.0044971
23.95,258.541,13.005,99.707,-0.0043956
24,259.041,13.005,99.704,-0.0043522
24.05,259.541,13.004,99.702,-0.0040381
24.1,260.041,13.004,99.7,-0.0042692
24.15,260.541,13.004,99.698,-0.0042202
24.2,261.041,13.003,99.695,-0.0045830
24.25,261.541,13.003,99.693,-0.0045313
24.3,262.041,13.003,99.691,-0.0045314
24.35,262.542,13.002,99.689,-0.0046245
24.4,263.042,13.002,99.686,-0.0043482
24.45,263.542,13.002,99.684,-0.0043972
24.5,264.042,13.002,99.682,-0.0044896
24.55,264.542,13.001,99.679,-0.0045330
24.6,265.042,13.001,99.677,-0.0046703
24.65,265.542,13.001,99.675,-0.0046245
24.7,266.042,13,99.672,-0.0045312
24.75,266.542,13,99.67,-0.0044848
24.8,267.042,13,99.668,-0.0048051
24.85,267.542,12.999,99.665,-0.0045788
24.9,268.043,12.999,99.663,-0.0045788
24.95,268.543,12.999,99.661,-0.0046703
25,269.043,12.998,99.658,-0.0044438
25.05,269.543,12.998,99.656,-0.0045830
25.1,270.043,12.998,99.654,-0.0052655
25.15,270.543,12.998,99.651,-0.0040810
25.2,271.043,12.997,99.649,-0.0045838
25.25,271.543,12.997,99.646,-0.0044455
25.3,272.043,12.997,99.644,-0.0048974
25.35,272.543,12.996,99.642,-0.0046687
25.4,273.043,12.996,99.639,-0.0049927
25.45,273.543,12.996,99.637,-0.0046729
25.5,274.044,12.995,99.634,-0.0051095
25.55,274.544,12.995,99.632,-0.0055536
25.6,275.044,12.995,99.63,-0.0045371
25.65,275.544,12.994,99.628,-0.0047222
25.7,276.044,12.994,99.625,-0.0048280
25.75,276.544,12.994,99.623,-0.0051471
25.8,277.044,12.994,99.62,-0.0046901
25.85,277.544,12.993,99.618,-0.0048677
25.9,278.044,12.993,99.616,-0.0048209
25.95,278.544,12.993,99.613,-0.0048165
26,279.044,12.992,99.611,-0.0053182
26.05,279.545,12.992,99.609,-0.0043947
26.1,280.045,12.992,99.606,-0.0046618
26.15,280.545,12.991,99.604,-0.0043916
26.2,281.045,12.991,99.601,-0.0049836
26.25,281.545,12.991,99.599,-0.0046186
26.3,282.045,12.99,99.596,-0.0049432
26.35,282.545,12.99,99.594,-0.0047161
26.4,283.045,12.99,99.592,-0.0052694
26.45,283.545,12.989,99.589,-0.0050430
26.5,284.045,12.989,99.587,-0.0049955
26.55,284.545,12.989,99.584,-0.0050430
26.6,285.046,12.988,99.582,-0.0048597
26.65,285.546,12.988,99.579,-0.0050366
26.7,286.046,12.988,99.577,-0.0045769
26.75,286.546,12.987,99.574,-0.0045272
26.8,287.046,12.987,99.572,-0.0052559
26.85,287.546,12.987,99.569,-0.0050366
26.9,288.046,12.986,99.566,-0.0049479
26.95,288.546,12.986,99.564,-0.0050293
27,289.046,12.986,99.561,-0.0054408
27.05,289.546,12.985,99.559,-0.0056756
27.1,290.046,12.985,99.556,-0.0051740
27.15,290.547,12.985,99.554,-0.0053901
27.2,291.047,12.984,99.551,-0.0055353
27.25,291.547,12.984,99.548,-0.0053980
27.3,292.047,12.984,99.546,-0.0052685
27.35,292.547,12.983,99.543,-0.0053670
27.4,293.047,12.983,99.54,-0.0055383
27.45,293.547,12.983,99.538,-0.0049469
27.5,294.047,12.982,99.535,-0.0051254
27.55,294.547,12.982,99.533,-0.0053572
27.6,295.047,12.982,99.53,-0.0048077
27.65,295.547,12.981,99.527,-0.0049423
27.7,296.048,12.981,99.525,-0.0054945
27.75,296.548,12.981,99.522,-0.0052734
27.8,297.048,12.98,99.519,-0.0053571
27.85,297.548,12.98,99.517,-0.0052246
27.9,298.048,12.98,99.514,-0.0053143
27.95,298.548,12.979,99.511,-0.0058097
28,299.048,12.979,99.509,-0.0054814
28.05,299.548,12.979,99.506,-0.0048993
28.1,300.048,12.978,99.503,-0.0050386
28.15,300.548,12.978,99.501,-0.0056725
28.2,301.048,12.978,99.498,-0.0056288
28.25,301.548,12.977,99.495,-0.0054537
28.3,302.049,12.977,99.492,-0.0055861
28.35,302.549,12.976,99.49,-0.0052675
28.4,303.049,12.976,99.487,-0.0050871
28.45,303.549,12.976,99.484,-0.0052724
28.5,304.049,12.975,99.481,-0.0051282
28.55,304.549,12.975,99.479,-0.0054128
28.6,305.049,12.975,99.476,-0.0054537
28.65,305.549,12.974,99.473,-0.0056849
28.7,306.049,12.974,99.47,-0.0054089
28.75,306.549,12.974,99.467,-0.0063621
28.8,307.049,12.973,99.465,-0.0057692
28.85,307.55,12.973,99.462,-0.0056777
28.9,308.05,12.972,99.459,-0.0054029
28.95,308.55,12.972,99.456,-0.0065067
29,309.05,12.972,99.453,-0.0061389
29.05,309.55,12.971,99.45,-0.0054915
29.1,310.05,12.971,99.447,-0.0052198
29.15,310.55,12.971,99.444,-0.0062180
29.2,311.05,12.97,99.441,-0.0058608
29.25,311.55,12.97,99.438,-0.0060463
29.3,312.05,12.969,99.436,-0.0058662
29.35,312.55,12.969,99.433,-0.0056391
29.4,313.051,12.969,99.43,-0.0065500
29.45,313.551,12.968,99.427,-0.0058683
29.5,314.051,12.968,99.424,-0.0062214
29.55,314.551,12.967,99.421,-0.0050787
29.6,315.051,12.967,99.418,-0.0058150
29.65,315.551,12.967,99.415,-0.0055892
29.7,316.051,12.966,99.412,-0.0057692
29.75,316.551,12.966,99.409,-0.0058150
29.8,317.051,12.966,99.406,-0.0056402
29.85,317.551,12.965,99.403,-0.0058129
29.9,318.051,12.965,99.4,-0.0054048
29.95,318.552,12.964,99.397,-0.0058170
30,319.052,12.964,99.394,-0.0059044
30.05,319.552,12.964,99.391,-0.0061870
30.1,320.052,12.963,99.388,-0.0060092
30.15,320.552,12.963,99.385,-0.0059557
30.2,321.052,12.962,99.382,-0.0065018
30.25,321.552,12.962,99.379,-0.0063761
30.3,322.052,12.962,99.376,-0.0061881
30.35,322.552,12.961,99.372,-0.0063268
30.4,323.052,12.961,99.369,-0.0060494
30.45,323.552,12.96,99.366,-0.0060036
30.5,324.053,12.96,99.363,-0.0064150
30.55,324.553,12.96,99.36,-0.0064983
30.6,325.053,12.959,99.357,-0.0062225
30.65,325.553,12.959,99.354,-0.0065356
30.7,326.053,12.958,99.351,-0.0064044
30.75,326.553,12.958,99.348,-0.0064478
30.8,327.053,12.958,99.344,-0.0062729
30.85,327.553,12.957,99.341,-0.0060953
30.9,328.053,12.957,99.338,-0.0074136
30.95,328.553,12.956,99.335,-0.0063645
31,329.053,12.956,99.332,-0.0063691
31.05,329.553,12.955,99.328,-0.0061366
31.1,330.054,12.955,99.325,-0.0064513
31.15,330.554,12.955,99.322,-0.0069559
31.2,331.054,12.954,99.319,-0.0067185
31.25,331.554,12.954,99.315,-0.0066393
31.3,332.054,12.953,99.312,-0.0069190
31.35,332.554,12.953,99.309,-0.0065970
31.4,333.054,12.952,99.305,-0.0065971
31.45,333.554,12.952,99.302,-0.0072344
31.5,334.054,12.952,99.299,-0.0068706
31.55,334.554,12.951,99.295,-0.0068262
31.6,335.054,12.951,99.292,-0.0066416
31.65,335.555,12.95,99.288,-0.0069534
31.7,336.055,12.95,99.285,-0.0065874
31.75,336.555,12.949,99.282,-0.0066874
31.8,337.055,12.949,99.278,-0.0065971
31.85,337.555,12.948,99.275,-0.0067717
31.9,338.055,12.948,99.271,-0.0066392
31.95,338.555,12.948,99.268,-0.0067803
32,339.055,12.947,99.264,-0.0068744
32.05,339.555,12.947,99.261,-0.0070591
32.1,340.055,12.946,99.257,-0.0071036
32.15,340.555,12.946,99.254,-0.0068681
32.2,341.056,12.945,99.25,-0.0071429
32.25,341.556,12.945,99.247,-0.0079169
32.3,342.056,12.944,99.243,-0.0069559
32.35,342.556,12.944,99.24,-0.0071886
32.4,343.056,12.943,99.236,-0.0069559
32.45,343.556,12.943,99.232,-0.0070017
32.5,344.056,12.942,99.229,-0.0072265
32.55,344.556,12.942,99.225,-0.0075453
32.6,345.056,12.941,99.221,-0.0075550
32.65,345.556,12.941,99.218,-0.0074593
32.7,346.056,12.941,99.214,-0.0078196
32.75,346.557,12.94,99.21,-0.0067284
32.8,347.057,12.94,99.207,-0.0077423
32.85,347.557,12.939,99.203,-0.0077896
32.9,348.057,12.939,99.199,-0.0077881
32.95,348.557,12.938,99.195,-0.0081089
33,349.057,12.938,99.191,-0.0075591
33.05,349.557,12.937,99.188,-0.0077410
33.1,350.057,12.937,99.184,-0.0076965
33.15,350.557,12.936,99.18,-0.0075050
33.2,351.057,12.936,99.176,-0.0078682
33.25,351.557,12.935,99.172,-0.0076007
33.3,352.058,12.935,99.168,-0.0077882
33.35,352.558,12.934,99.165,-0.0079256
33.4,353.058,12.934,99.161,-0.0076535
33.45,353.558,12.933,99.157,-0.0074634
33.5,354.058,12.933,99.153,-0.0081044
33.55,354.558,12.932,99.149,-0.0078297
33.6,355.058,12.932,99.145,-0.0078784
33.65,355.558,12.931,99.141,-0.0081914
33.7,356.058,12.93,99.137,-0.0074176
33.75,356.558,12.93,99.133,-0.0079598
33.8,357.058,12.929,99.129,-0.0078254
33.85,357.558,12.929,99.125,-0.0076493
33.9,358.059,12.928,99.121,-0.0077910
33.95,358.559,12.928,99.117,-0.0083838
34,359.059,12.927,99.112,-0.0088451
34.05,359.559,12.927,99.108,-0.0079183
34.1,360.059,12.926,99.104,-0.0087454
34.15,360.559,12.926,99.1,-0.0085670
34.2,361.059,12.925,99.096,-0.0087487
34.25,361.559,12.925,99.091,-0.0090543
34.3,362.059,12.924,99.087,-0.0086033
34.35,362.559,12.923,99.083,-0.0086949
34.4,363.059,12.923,99.079,-0.0086555
34.45,363.56,12.922,99.074,-0.0089678
34.5,364.06,12.922,99.07,-0.0086427
34.55,364.56,12.921,99.066,-0.0092237
34.6,365.06,12.921,99.061,-0.0088698
34.65,365.56,12.92,99.057,-0.0091949
34.7,366.06,12.919,99.052,-0.0089204
34.75,366.56,12.919,99.048,-0.0096488
34.8,367.06,12.918,99.043,-0.0087832
34.85,367.56,12.918,99.039,-0.0088779
34.9,368.06,12.917,99.034,-0.0091575
34.95,368.56,12.916,99.03,-0.0092661
35,369.061,12.916,99.025,-0.0097212
35.05,369.561,12.915,99.02,-0.0093933
35.1,370.061,12.915,99.016,-0.0098570
35.15,370.561,12.914,99.011,-0.0101648
35.2,371.061,12.913,99.006,-0.0096612
35.25,371.561,12.913,99.001,-0.0093864
35.3,372.061,12.912,98.996,-0.0097581
35.35,372.561,12.911,98.991,-0.0097527
35.4,373.061,12.911,98.986,-0.0098021
35.45,373.561,12.91,98.981,-0.0098497
35.5,374.061,12.91,98.976,-0.0104396
35.55,374.562,12.909,98.971,-0.0103518
35.6,375.062,12.908,98.966,-0.0099268
35.65,375.562,12.908,98.961,-0.0105711
35.7,376.062,12.907,98.956,-0.0108477
35.75,376.562,12.906,98.95,-0.0102965
35.8,377.062,12.905,98.945,-0.0107104
35.85,377.562,12.905,98.94,-0.0104339
35.9,378.062,12.904,98.934,-0.0107103
35.95,378.562,12.903,98.929,-0.0113449
36,379.062,12.903,98.923,-0.0113408
36.05,379.562,12.902,98.917,-0.0118088
36.1,380.063,12.901,98.911,-0.0115385
36.15,380.563,12.9,98.906,-0.0118132
36.2,381.063,12.9,98.9,-0.0120813
36.25,381.563,12.899,98.894,-0.0115385
36.3,382.063,12.898,98.888,-0.0124840
36.35,382.563,12.897,98.882,-0.0121271
36.4,383.063,12.896,98.876,-0.0125526
36.45,383.563,12.896,98.87,-0.0126420
36.5,384.063,12.895,98.863,-0.0125985
36.55,384.563,12.894,98.857,-0.0129579
36.6,385.063,12.893,98.85,-0.0126374
36.65,385.563,12.892,98.844,-0.0131796
36.7,386.064,12.891,98.837,-0.0134974
36.75,386.564,12.891,98.831,-0.0135481
36.8,387.064,12.89,98.824,-0.0139118
36.85,387.564,12.889,98.817,-0.0139575
36.9,388.064,12.888,98.81,-0.0143694
36.95,388.564,12.887,98.802,-0.0144178
37,389.064,12.886,98.795,-0.0145418
37.05,389.564,12.885,98.788,-0.0146978
37.1,390.064,12.884,98.78,-0.0151154
37.15,390.564,12.883,98.773,-0.0154847
37.2,391.064,12.882,98.765,-0.0156593
37.25,391.565,12.881,98.757,-0.0157138
37.3,392.065,12.88,98.749,-0.0163462
37.35,392.565,12.879,98.741,-0.0163769
37.4,393.065,12.878,98.732,-0.0170694
37.45,393.565,12.877,98.724,-0.0171703
37.5,394.065,12.875,98.715,-0.0173993
37.55,394.565,12.874,98.706,-0.0178931
37.6,395.065,12.873,98.697,-0.0187271
37.65,395.565,12.872,98.688,-0.0184167
37.7,396.065,12.871,98.679,-0.0192202
37.75,396.565,12.869,98.669,-0.0196886
37.8,397.066,12.868,98.659,-0.0195971
37.85,397.566,12.867,98.65,-0.0201465
37.9,398.066,12.866,98.639,-0.0205586
37.95,398.566,12.864,98.629,-0.0211003
38,399.066,12.863,98.618,-0.0213370
38.05,399.566,12.861,98.608,-0.0218864
38.1,400.066,12.86,98.597,-0.0226524
38.15,400.566,12.859,98.585,-0.0231846
38.2,401.066,12.857,98.574,-0.0237507
38.25,401.566,12.855,98.562,-0.0238466
38.3,402.066,12.854,98.55,-0.0250228
38.35,402.567,12.852,98.537,-0.0251282
38.4,403.067,12.851,98.524,-0.0260989
38.45,403.567,12.849,98.511,-0.0260531
38.5,404.067,12.847,98.498,-0.0267857
38.55,404.567,12.845,98.485,-0.0271520
38.6,405.067,12.844,98.471,-0.0274418
38.65,405.567,12.842,98.457,-0.0277015
38.7,406.067,12.84,98.443,-0.0292880
38.75,406.567,12.838,98.429,-0.0300934
38.8,407.067,12.836,98.414,-0.0304085
38.85,407.567,12.834,98.398,-0.0307066
38.9,408.068,12.832,98.383,-0.0311813
38.95,408.568,12.83,98.368,-0.0320278
39,409.068,12.828,98.352,-0.0321135
39.05,409.568,12.826,98.335,-0.0325888
39.1,410.068,12.824,98.319,-0.0330404
39.15,410.568,12.822,98.302,-0.0339765
39.2,411.068,12.819,98.285,-0.0347070
39.25,411.568,12.817,98.268,-0.0355311
39.3,412.068,12.815,98.25,-0.0362637
39.35,412.568,12.812,98.232,-0.0367674
39.4,413.068,12.81,98.213,-0.0375572
39.45,413.568,12.807,98.194,-0.0385636
39.5,414.069,12.805,98.174,-0.0404065
39.55,414.569,12.802,98.154,-0.0418257
39.6,415.069,12.799,98.132,-0.0425677
39.65,415.569,12.797,98.111,-0.0434922
39.7,416.069,12.794,98.088,-0.0460151
39.75,416.569,12.791,98.065,-0.0476695
39.8,417.069,12.788,98.041,-0.0502302
39.85,417.569,12.784,98.016,-0.0517289
39.9,418.069,12.781,97.989,-0.0532862
39.95,418.569,12.777,97.962,-0.0547004
40,419.069,12.774,97.934,-0.0565018
40.05,419.57,12.77,97.906,-0.0583714
40.1,420.07,12.766,97.876,-0.0601463
40.15,420.57,12.762,97.845,-0.0622716
40.2,421.07,12.758,97.815,-0.0644985
40.25,421.57,12.754,97.782,-0.0673218
40.3,422.07,12.749,97.746,-0.0703125
40.35,422.57,12.744,97.71,-0.0745381
40.4,423.07,12.739,97.671,-0.0779649
40.45,423.57,12.734,97.63,-0.0840347
40.5,424.07,12.728,97.585,-0.0920330
40.55,424.57,12.721,97.534,-0.1027010
40.6,425.071,12.714,97.479,-0.1096700
40.65,425.571,12.706,97.419,-0.1226400
40.7,426.071,12.698,97.353,-0.1323120
40.75,426.571,12.689,97.286,-0.1326300
40.8,427.071,12.68,97.216,-0.1305210
40.85,427.571,12.671,97.145,-0.1388790
40.9,428.071,12.661,97.071,-0.1521420
40.95,428.571,12.651,96.992,-0.1663470
41,429.071,12.64,96.91,-0.1523960
41.05,429.571,12.63,96.835,-0.1501830
41.1,430.071,12.62,96.755,-0.1653120
41.15,430.572,12.608,96.666,-0.1909990
41.2,431.072,12.596,96.57,-0.1952220
41.25,431.572,12.582,96.469,-0.2109670
41.3,432.072,12.568,96.357,-0.2231820
41.35,432.572,12.552,96.237,-0.2533810
41.4,433.072,12.536,96.116,-0.2373400
41.45,433.572,12.52,95.992,-0.2501370
41.5,434.072,12.504,95.864,-0.2656450
41.55,434.572,12.487,95.736,-0.2487210
41.6,435.072,12.471,95.614,-0.2561750
41.65,435.572,12.453,95.475,-0.3030050
41.7,436.073,12.433,95.322,-0.3311020
41.75,436.573,12.41,95.149,-0.3702550
41.8,437.073,12.386,94.959,-0.3964840
41.85,437.573,12.359,94.758,-0.4094290
41.9,438.073,12.332,94.548,-0.4507540
41.95,438.573,12.302,94.319,-0.4695520
42,439.073,12.271,94.081,-0.4927570
42.05,439.573,12.238,93.827,-0.5150790
42.1,440.073,12.203,93.562,-0.5505470
42.15,440.573,12.166,93.278,-0.5697020
42.2,441.073,12.128,92.988,-0.6006430
42.25,441.573,12.089,92.685,-0.6161560
42.3,442.074,12.048,92.371,-0.6403390
42.35,442.574,12.006,92.047,-0.6316230
42.4,443.074,11.964,91.723,-0.6058500
42.45,443.574,11.92,91.393,-0.6606430
42.5,444.074,11.875,91.047,-0.6756890
42.55,444.574,11.83,90.697,-0.7173710
42.6,445.074,11.781,90.323,-0.7125500
42.65,445.574,11.735,89.972,-0.7028280
42.7,446.074,11.687,89.6,-0.7275910
42.75,446.574,11.633,89.191,-0.8225140
42.8,447.074,11.576,88.754,-0.8812270
42.85,447.575,11.516,88.295,-0.9373850
42.9,448.075,11.452,87.805,-1.00142
42.95,448.575,11.383,87.274,-1.0488
43,449.075,11.312,86.732,-1.07569
43.05,449.575,11.24,86.176,-1.15756
43.1,450.075,11.162,85.578,-1.25418
43.16,450.575,11.076,84.921,-1.28412
43.21,451.075,10.997,84.311,-1.29185
43.26,451.575,10.914,83.679,-1.32436
43.31,452.075,10.827,83.011,-1.39808
43.36,452.575,10.735,82.303,-1.47758
43.41,453.076,10.641,81.585,-1.56364
43.46,453.576,10.538,80.797,-1.61385
43.51,454.076,10.432,79.983,-1.57093
43.56,454.576,10.331,79.21,-1.64597
43.61,455.076,10.217,78.336,-1.79076
43.66,455.576,10.101,77.446,-1.81671
43.71,456.076,9.979,76.508,-1.96108
43.76,456.576,9.852,75.535,-2.02101
43.81,457.076,9.732,74.614,-1.93831
43.86,457.576,9.596,73.575,-2.17799
43.91,458.076,9.461,72.535,-2.1868
43.96,458.577,9.318,71.437,-2.22274
44.01,459.077,9.171,70.313,-2.19576
44.06,459.577,9.019,69.148,-2.44598
44.11,460.077,8.867,67.981,-2.32949
44.16,460.577,8.703,66.728,-2.43133
44.21,461.077,8.54,65.473,-2.56936
44.26,461.577,8.371,64.178,-2.52635
44.31,462.077,8.199,62.858,-2.73449
44.36,462.577,8.022,61.501,-2.68819
44.41,463.077,7.842,60.124,-2.7799
44.46,463.577,7.657,58.706,-2.8551
44.51,464.078,7.469,57.266,-2.92784
44.56,464.578,7.274,55.77,-2.97531
44.61,465.078,7.075,54.241,-3.12791
44.66,465.578,6.875,52.707,-3.12171
44.71,466.078,6.67,51.137,-3.20387
44.76,466.578,6.464,49.561,-3.18143
44.81,467.078,6.254,47.947,-3.2907
44.86,467.578,6.044,46.339,-3.22379
44.91,468.078,5.83,44.695,-3.37134
44.96,468.578,5.613,43.034,-3.29177
45.01,469.078,5.396,41.372,-3.27217
45.06,469.578,5.178,39.7,-3.39539
45.11,470.079,4.958,38.011,-3.36048
45.16,470.579,4.739,36.336,-3.34959
45.21,471.079,4.52,34.654,-3.32687
45.25,471.579,4.308,33.028,-3.32578
45.3,472.079,4.092,31.372,-3.34074
45.35,472.579,3.876,29.717,-3.29758
45.4,473.079,3.662,28.077,-3.23084
45.45,473.579,3.453,26.473,-3.15855
45.5,474.079,3.247,24.893,-3.09423
45.55,474.579,3.044,23.34,-3.03434
45.6,475.079,2.846,21.824,-2.96834
45.65,475.58,2.66,20.392,-2.88248
45.7,476.08,2.471,18.947,-2.79786
45.75,476.58,2.29,17.557,-2.71382
45.8,477.08,2.114,16.211,-2.62654
45.85,477.58,1.947,14.926,-2.46198
45.9,478.08,1.787,13.703,-2.3866
45.95,478.58,1.637,12.547,-2.21171
46,479.08,1.495,11.464,-2.08408
46.05,479.58,1.367,10.483,-1.97531
46.1,480.08,1.244,9.539,-1.77221
46.15,480.58,1.131,8.67,-1.67259
46.2,481.081,1.026,7.869,-1.48368
46.25,481.581,0.9310000,7.14,-1.37499
46.3,482.081,0.8480000,6.5,-1.23904
46.35,482.581,0.7690000,5.898,-1.13314
46.4,483.081,0.6990000,5.362,-0.9924840
46.45,483.581,0.6370000,4.885,-0.9124620
46.5,484.081,0.5830000,4.468,-0.8011530
46.55,484.581,0.5350000,4.101,-0.6719470
46.6,485.081,0.4930000,3.783,-0.5666780
46.65,485.581,0.4580000,3.514,-0.4870320
46.7,486.081,0.4280000,3.284,-0.4033970
46.75,486.582,0.4040000,3.094,-0.3333220
46.8,487.082,0.3830000,2.935,-0.2789310
46.85,487.582,0.3660000,2.807,-0.2184510
46.9,488.082,0.3530000,2.704,-0.1863170
46.95,488.582,0.3420000,2.622,-0.1419490
47,489.082,0.3340000,2.562,-0.1005510
47.05,489.582,0.3280000,2.518,-0.0765622
47.1,490.082,0.3240000,2.486,-0.0519828
47.15,490.582,0.3210000,2.46,-0.0541508
47.2,491.082,0.3170000,2.433,-0.0517757
47.25,491.582,0.3140000,2.408,-0.0476845
47.3,492.083,0.3110000,2.386,-0.0419237
47.35,492.583,0.3090000,2.366,-0.0361901
47.4,493.083,0.3060000,2.349,-0.0309275
47.45,493.583,0.3050000,2.335,-0.0257266
47.51,494.083,0.3030000,2.323,-0.0218808
47.56,494.583,0.3020000,2.313,-0.0178093
47.61,495.083,0.3010000,2.305,-0.0149870
47.66,495.583,0.3000000,2.298,-0.0119046
47.71,496.083,0.2990000,2.293,-0.0100864
47.76,496.583,0.2990000,2.289,-0.0083514
47.81,497.083,0.2980000,2.285,-0.0062393
47.85,497.583,0.2980000,2.282,-0.0051497
47.9,498.084,0.2970000,2.28,-0.0045524
47.95,498.584,0.2970000,2.278,-0.0033940
48,499.084,0.2970000,2.276,-0.0025857
48.05,499.584,0.2970000,2.275,-0.0024210
48.1,500.084,0.2970000,2.274,-0.0021277
48.15,500.584,0.2960000,2.273,-0.0014751
48.2,501.084,0.2960000,2.272,-0.0013790
48.25,501.584,0.2960000,2.272,-0.0010277
48.3,502.084,0.2960000,2.271,-0.0010806
48.35,502.584,0.2960000,2.27,-0.0006890
48.4,503.084,0.2960000,2.27,-0.0005396
48.45,503.585,0.2960000,2.27,-0.0005906
48.5,504.085,0.2960000,2.269,-0.0004985
48.55,504.585,0.2960000,2.269,-0.0006690
48.6,505.085,0.2960000,2.269,-0.0006536
48.65,505.585,0.2960000,2.269,-0.0001804
48.7,506.085,0.2960000,2.268,-0.0005361
48.75,506.585,0.2960000,2.268,-0.0007522
48.8,507.085,0.2960000,2.268,-0.0002627
48.85,507.585,0.2960000,2.268,-0.0003127
48.91,508.085,0.2960000,2.268,-0.0003942
48.96,508.585,0.2960000,2.267,-0.0001347
49.01,509.086,0.2960000,2.267,-0.0008962
49.06,509.586,0.2960000,2.267,-0.0001201
49.11,510.086,0.2960000,2.267,-0.0003358
49.16,510.586,0.2960000,2.267,-0.0002801
49.21,511.086,0.2960000,2.267,0.0001343
49.26,511.586,0.2960000,2.266,-0.0004758
49.3,512.086,0.2960000,2.266,-0.0006932
49.35,512.586,0.2960000,2.266,-0.0002547
49.4,513.086,0.2960000,2.266,-0.0005346
49.45,513.586,0.2960000,2.266,-0.0006604
49.5,514.086,0.2950000,2.265,-0.0002557
49.55,514.587,0.2950000,2.265,-0.0007984
49.6,515.087,0.2950000,2.265,-0.0005456
49.65,515.587,0.2950000,2.265,-0.0002841
49.7,516.087,0.2950000,2.265,-0.0003599
49.75,516.587,0.2950000,2.264,-0.0001242
49.8,517.087,0.2950000,2.264,-0.0002370
49.85,517.587,0.2950000,2.264,-0.0000971
49.9,518.087,0.2950000,2.264,-0.0003600
49.95,518.587,0.2950000,2.263,-0.0006284
50,519.087,0.2950000,2.263,-0.0005099
50.05,519.587,0.2950000,2.263,-0.0006570
50.1,520.088,0.2950000,2.263,-0.0005941
50.15,520.588,0.2950000,2.262,-0.0007355
50.2,521.088,0.2950000,2.262,-0.0005081
50.25,521.588,0.2950000,2.262,-0.0006670
50.3,522.088,0.2950000,2.261,-0.0010141
50.35,522.588,0.2950000,2.261,-0.0008204
50.4,523.088,0.2950000,2.261,-0.0008398
50.45,523.588,0.2950000,2.26,-0.0010697
50.5,524.088,0.2950000,2.26,-0.0009726
50.55,524.588,0.2950000,2.259,-0.0008784
50.6,525.088,0.2950000,2.259,-0.0010498
50.65,525.588,0.2950000,2.259,-0.0008070
50.7,526.089,0.2950000,2.258,-0.0006813
50.75,526.589,0.2940000,2.258,-0.0006678
50.8,527.089,0.2940000,2.257,-0.0012554
50.85,527.589,0.2940000,2.257,-0.0010987
50.9,528.089,0.2940000,2.256,-0.0009954
50.95,528.589,0.2940000,2.256,-0.0015554
51,529.089,0.2940000,2.255,-0.0012749
51.05,529.589,0.2940000,2.255,-0.0015673
51.1,530.089,0.2940000,2.254,-0.0010905
51.15,530.589,0.2940000,2.253,-0.0016611
51.2,531.089,0.2940000,2.253,-0.0009485
51.25,531.59,0.2940000,2.252,-0.0014668
51.3,532.09,0.2940000,2.252,-0.0007417
51.35,532.59,0.2940000,2.251,-0.0009906
51.4,533.09,0.2940000,2.251,-0.0009433
51.45,533.59,0.2940000,2.25,-0.0008861
51.5,534.09,0.2930000,2.25,-0.0011823
51.55,534.59,0.2930000,2.249,-0.0013340
51.6,535.09,0.2930000,2.249,-0.0011569
51.65,535.59,0.2930000,2.248,-0.0009473
51.7,536.09,0.2930000,2.248,-0.0010592
51.75,536.59,0.2930000,2.247,-0.0008498
51.8,537.091,0.2930000,2.247,-0.0012783
51.85,537.591,0.2930000,2.246,-0.0008965
51.9,538.091,0.2930000,2.246,-0.0008975
51.95,538.591,0.2930000,2.245,-0.0013536
52,539.091,0.2930000,2.245,-0.0014492
52.05,539.591,0.2930000,2.244,-0.0018751
52.1,540.091,0.2930000,2.244,-0.0011481
52.15,540.591,0.2930000,2.243,-0.0011768
52.2,541.091,0.2930000,2.243,-0.0009862
52.25,541.591,0.2920000,2.242,-0.0008779
52.3,542.091,0.2920000,2.242,-0.0008806
52.35,542.592,0.2920000,2.241,-0.0008819
52.4,543.092,0.2920000,2.241,-0.0007413
52.45,543.592,0.2920000,2.24,-0.0010083
52.5,544.092,0.2920000,2.24,-0.0006223
52.55,544.592,0.2920000,2.239,-0.0011173
52.6,545.092,0.2920000,2.239,-0.0012944
52.65,545.592,0.2920000,2.238,-0.0010487
52.7,546.092,0.2920000,2.238,-0.0010305
52.75,546.592,0.2920000,2.237,-0.0010517
52.8,547.092,0.2920000,2.237,-0.0009340
52.85,547.592,0.2920000,2.236,-0.0006470
52.9,548.093,0.2920000,2.236,-0.0009445
52.95,548.593,0.2920000,2.235,-0.0008362
53,549.093,0.2910000,2.235,-0.0003987
53.05,549.593,0.2910000,2.234,-0.0008748
53.1,550.093,0.2910000,2.234,-0.0009762
53.15,550.593,0.2910000,2.234,-0.0011402
53.2,551.093,0.2910000,2.233,-0.0011731
53.25,551.593,0.2910000,2.232,-0.0011983
53.3,552.093,0.2910000,2.232,-0.0013530
53.35,552.593,0.2910000,2.231,-0.0012070
53.4,553.093,0.2910000,2.231,-0.0014180
53.45,553.593,0.2910000,2.23,-0.0009658
53.5,554.094,0.2910000,2.229,-0.0010689
53.55,554.594,0.2910000,2.229,-0.0009100
53.6,555.094,0.2910000,2.228,-0.0010033
53.65,555.594,0.2910000,2.228,-0.0014366
53.7,556.094,0.2900000,2.227,-0.0013565
53.75,556.594,0.2900000,2.226,-0.0010653
53.8,557.094,0.2900000,2.226,-0.0013908
53.85,557.594,0.2900000,2.225,-0.0012522
53.9,558.094,0.2900000,2.225,-0.0012606
53.95,558.594,0.2900000,2.224,-0.0010896
54,559.094,0.2900000,2.223,-0.0012577
54.05,559.595,0.2900000,2.223,-0.0010797
54.1,560.095,0.2900000,2.222,-0.0011463
54.15,560.595,0.2900000,2.221,-0.0014581
54.2,561.095,0.2900000,2.221,-0.0016240
54.25,561.595,0.2900000,2.22,-0.0015739
54.3,562.095,0.2890000,2.219,-0.0012320
54.35,562.595,0.2890000,2.219,-0.0013192
54.4,563.095,0.2890000,2.218,-0.0009444
54.45,563.595,0.2890000,2.217,-0.0011962
54.5,564.095,0.2890000,2.217,-0.0011533
54.55,564.595,0.2890000,2.216,-0.0013722
54.6,565.096,0.2890000,2.215,-0.0017116
54.65,565.596,0.2890000,2.214,-0.0016798
54.7,566.096,0.2890000,2.213,-0.0018115
54.75,566.596,0.2890000,2.213,-0.0017139
54.8,567.096,0.2880000,2.212,-0.0020862
54.85,567.596,0.2880000,2.211,-0.0019073
54.9,568.096,0.2880000,2.21,-0.0015883
54.95,568.596,0.2880000,2.209,-0.0020918
55,569.096,0.2880000,2.208,-0.0017042
55.05,569.596,0.2880000,2.207,-0.0014922
55.1,570.096,0.2880000,2.206,-0.0018003
55.15,570.597,0.2880000,2.205,-0.0016885
55.2,571.097,0.2880000,2.204,-0.0016265
55.25,571.597,0.2870000,2.203,-0.0024779
55.3,572.097,0.2870000,2.202,-0.0026142
55.35,572.597,0.2870000,2.201,-0.0026199
55.4,573.097,0.2870000,2.2,-0.0025678
55.45,573.597,0.2870000,2.199,-0.0026294
55.5,574.097,0.2870000,2.197,-0.0027387
55.55,574.597,0.2860000,2.196,-0.0026256
55.6,575.097,0.2860000,2.194,-0.0030363
55.65,575.597,0.2860000,2.193,-0.0027344
55.7,576.098,0.2860000,2.191,-0.0032709
55.75,576.598,0.2860000,2.19,-0.0027887
55.8,577.098,0.2850000,2.188,-0.0031845
55.85,577.598,0.2850000,2.187,-0.0031965
55.9,578.098,0.2850000,2.185,-0.0033625
55.95,578.598,0.2850000,2.184,-0.0033303
56,579.098,0.2850000,2.182,-0.0038147
56.05,579.598,0.2840000,2.18,-0.0035717
56.1,580.098,0.2840000,2.178,-0.0039134
56.15,580.598,0.2840000,2.176,-0.0043223
56.2,581.098,0.2840000,2.174,-0.0039749
56.25,581.598,0.2830000,2.172,-0.0043177
56.3,582.099,0.2830000,2.17,-0.0046052
56.35,582.599,0.2830000,2.168,-0.0044321
56.4,583.099,0.2820000,2.166,-0.0046517
56.45,583.599,0.2820000,2.163,-0.0049136
56.5,584.099,0.2820000,2.161,-0.0047648
56.55,584.599,0.2820000,2.159,-0.0045859
56.6,585.099,0.2810000,2.156,-0.0049367
56.65,585.599,0.2810000,2.154,-0.0050497
56.7,586.099,0.2810000,2.151,-0.0050668
56.75,586.599,0.2800000,2.149,-0.0052003
56.8,587.099,0.2800000,2.146,-0.0057542
56.85,587.6,0.2800000,2.143,-0.0055163
56.9,588.1,0.2790000,2.14,-0.0055663
56.95,588.6,0.2790000,2.137,-0.0063287
57,589.1,0.2780000,2.134,-0.0062817
57.05,589.6,0.2780000,2.131,-0.0058608
57.09,590,0.2780000,2.129,-0.0059994