File: R/rHDPE_App/app/www/Output/TGA/Condensed_Data/Resin6_0__1.csv
1.31,30,14.027,100.043,-0.0002561
1.36,30.5001,14.027,100.043,0.0015235
1.42,31.0002,14.027,100.044,0.0002524
1.47,31.5003,14.027,100.044,0.0017554
1.53,32.0004,14.027,100.044,-0.0002992
1.58,32.5004,14.027,100.045,0.0019372
1.64,33.0005,14.028,100.046,0.0001482
1.69,33.5006,14.028,100.046,0.0003445
1.74,34.0007,14.028,100.046,0.0021099
1.8,34.5008,14.028,100.047,-0.0001957
1.85,35.0009,14.028,100.047,0.0008777
1.9,35.501,14.028,100.048,0.0016547
1.96,36.0011,14.028,100.048,0.0006801
2.01,36.5012,14.028,100.049,0.0013573
2.06,37.0013,14.028,100.049,0.0019353
2.12,37.5013,14.028,100.05,0.0003864
2.17,38.0014,14.028,100.05,0.0004345
2.22,38.5015,14.028,100.051,0.0016870
2.27,39.0016,14.028,100.052,0.0008185
2.33,39.5017,14.028,100.052,0.0005291
2.38,40.0018,14.028,100.052,0.0016815
2.43,40.5019,14.029,100.053,0.0012469
2.48,41.002,14.029,100.053,0.0002395
2.54,41.5021,14.029,100.054,0.0011474
2.59,42.0021,14.029,100.054,0.0015762
2.64,42.5022,14.029,100.055,0.0006197
2.69,43.0023,14.029,100.055,0.0011418
2.74,43.5024,14.029,100.056,0.0018059
2.8,44.0025,14.029,100.057,0.0007593
2.85,44.5026,14.029,100.057,0.0011370
2.9,45.0027,14.029,100.058,0.0015618
2.95,45.5028,14.029,100.058,0.0003782
3,46.0029,14.029,100.059,0.0016057
3.06,46.5029,14.029,100.06,0.0021220
3.11,47.003,14.03,100.06,0.0013194
3.16,47.5031,14.03,100.061,0.0008944
3.21,48.0032,14.03,100.061,0.0013631
3.26,48.5033,14.03,100.062,0.0008922
3.31,49.0034,14.03,100.063,0.0006567
3.36,49.5035,14.03,100.063,0.0014521
3.41,50.0036,14.03,100.064,0.0013112
3.46,50.5037,14.03,100.064,0.0008417
3.52,51.0038,14.03,100.065,0.0011217
3.57,51.5038,14.03,100.065,0.0011206
3.62,52.0039,14.03,100.066,0.0006064
3.67,52.504,14.03,100.066,0.0006058
3.72,53.0041,14.03,100.067,0.0017224
3.77,53.5042,14.031,100.067,0.0007906
3.82,54.0043,14.031,100.067,0.0005580
3.87,54.5044,14.031,100.068,0.0017659
3.92,55.0045,14.031,100.069,0.0008356
3.97,55.5046,14.031,100.069,0.0006955
4.03,56.0046,14.031,100.07,0.0017625
4.08,56.5047,14.031,100.071,0.0009733
4.13,57.0048,14.031,100.071,0.0002780
4.18,57.5049,14.031,100.071,0.0012041
4.23,58.005,14.031,100.072,0.0014812
4.28,58.5051,14.031,100.073,0.0002776
4.33,59.0052,14.031,100.073,0.0010636
4.38,59.5053,14.031,100.074,0.0014322
4.43,60.0054,14.032,100.074,0.0004617
4.48,60.5054,14.032,100.074,0.0006462
4.53,61.0055,14.032,100.075,0.0015225
4.58,61.5056,14.032,100.075,0.0004611
4.63,62.0057,14.032,100.076,0.0006915
4.68,62.5058,14.032,100.076,0.0012445
4.73,63.0059,14.032,100.077,0.0009210
4.78,63.506,14.032,100.077,0.0003223
4.83,64.0061,14.032,100.077,0.0013803
4.88,64.5062,14.032,100.078,0.0013339
4.93,65.0063,14.032,100.078,0.0005517
4.98,65.5063,14.032,100.078,0.0006436
5.03,66.0064,14.032,100.079,0.0017459
5.08,66.5065,14.032,100.08,0.0000459
5.13,67.0066,14.032,100.08,0.0007348
5.18,67.5067,14.032,100.08,0.0015616
5.23,68.0068,14.033,100.081,0.0008722
5.28,68.5069,14.033,100.081,0.0000918
5.33,69.007,14.033,100.082,0.0009180
5.38,69.5071,14.033,100.082,0.0005966
5.43,70.0071,14.033,100.082,-0.0000000
5.48,70.5072,14.033,100.083,0.0010095
5.53,71.0073,14.033,100.083,0.0007799
5.58,71.5074,14.033,100.083,0.0002293
5.63,72.0075,14.033,100.083,0.0007338
5.68,72.5076,14.033,100.084,0.0015591
5.73,73.0077,14.033,100.085,0.0004126
5.78,73.5078,14.033,100.085,0.0000000
5.83,74.0079,14.033,100.085,0.0012826
5.88,74.5079,14.033,100.086,0.0001832
5.93,75.008,14.033,100.086,0.0000458
5.99,75.5081,14.033,100.086,0.0010992
6.04,76.0082,14.033,100.087,0.0009158
6.09,76.5083,14.033,100.087,0.0001831
6.14,77.0084,14.033,100.087,0.0007324
6.19,77.5085,14.033,100.087,0.0011445
6.24,78.0086,14.033,100.088,0.0004577
6.29,78.5087,14.033,100.088,0.0003203
6.33,79.0088,14.034,100.089,0.0013260
6.38,79.5088,14.034,100.089,0.0002286
6.43,80.0089,14.034,100.089,0.0002745
6.48,80.509,14.034,100.089,0.0010980
6.53,81.0091,14.034,100.09,0.0002289
6.58,81.5092,14.034,100.09,-0.0002289
6.63,82.0093,14.034,100.09,0.0010532
6.68,82.5094,14.034,100.09,0.0006408
6.73,83.0095,14.034,100.091,-0.0000458
6.78,83.5096,14.034,100.091,0.0005496
6.83,84.0096,14.034,100.091,0.0006871
6.88,84.5097,14.034,100.091,0.0001831
6.93,85.0098,14.034,100.091,0.0003660
6.98,85.5099,14.034,100.092,0.0012338
7.04,86.01,14.034,100.092,0.0000457
7.09,86.5101,14.034,100.092,0.0000913
7.14,87.0102,14.034,100.092,0.0011408
7.19,87.5103,14.034,100.093,0.0003654
7.24,88.0104,14.034,100.093,0.0000457
7.29,88.5104,14.034,100.093,0.0008688
7.34,89.0105,14.034,100.093,0.0007320
7.39,89.5106,14.034,100.093,-0.0001374
7.44,90.0107,14.034,100.093,0.0006872
7.49,90.5108,14.034,100.094,0.0010083
7.54,91.0109,14.034,100.094,0.0001832
7.59,91.511,14.034,100.094,0.0000915
7.64,92.0111,14.034,100.094,0.0009148
7.69,92.5112,14.034,100.095,-0.0000915
7.74,93.0113,14.034,100.094,-0.0001373
7.79,93.5113,14.034,100.095,0.0004574
7.84,94.0114,14.034,100.095,0.0002743
7.89,94.5115,14.034,100.095,-0.0002287
7.94,95.0116,14.034,100.095,0.0006402
7.98,95.5117,14.034,100.095,0.0006402
8.03,96.0118,14.034,100.095,-0.0005946
8.08,96.5119,14.034,100.095,0.0001831
8.13,97.012,14.035,100.096,0.0010538
8.19,97.5121,14.035,100.096,-0.0000917
8.24,98.0121,14.035,100.096,0.0002750
8.29,98.5122,14.035,100.096,0.0008244
8.34,99.0123,14.035,100.096,0.0002287
8.39,99.5124,14.035,100.096,0.0000000
8.44,100.013,14.035,100.096,0.0002285
8.48,100.513,14.035,100.096,0.0000914
8.53,101.013,14.035,100.096,-0.0005487
8.58,101.513,14.035,100.096,0.0003204
8.63,102.013,14.035,100.096,0.0004576
8.68,102.513,14.035,100.096,-0.0005947
8.73,103.013,14.035,100.096,-0.0000915
8.78,103.513,14.035,100.096,0.0009601
8.83,104.013,14.035,100.097,-0.0002744
8.88,104.513,14.035,100.097,-0.0001830
8.93,105.013,14.035,100.097,0.0010547
8.98,105.513,14.035,100.097,0.0000917
9.03,106.014,14.035,100.097,-0.0002293
9.08,106.514,14.035,100.097,0.0002748
9.13,107.014,14.035,100.097,-0.0002748
9.18,107.514,14.035,100.097,-0.0005498
9.23,108.014,14.035,100.097,-0.0001833
9.28,108.514,14.035,100.097,0.0004583
9.33,109.014,14.035,100.097,-0.0005042
9.38,109.514,14.035,100.097,-0.0003664
9.43,110.014,14.035,100.097,0.0005038
9.48,110.514,14.035,100.097,-0.0004588
9.53,111.014,14.035,100.097,-0.0001375
9.58,111.515,14.035,100.097,0.0006408
9.63,112.015,14.035,100.097,-0.0000916
9.68,112.515,14.035,100.097,-0.0004579
9.73,113.015,14.035,100.097,0.0002289
9.78,113.515,14.035,100.097,0.0000000
9.83,114.015,14.035,100.097,-0.0006868
9.88,114.515,14.035,100.097,0.0000000
9.93,115.015,14.035,100.097,0.0005957
9.98,115.515,14.035,100.097,-0.0004578
10.03,116.015,14.035,100.097,-0.0000458
10.08,116.515,14.035,100.097,0.0004121
10.13,117.016,14.035,100.097,-0.0001831
10.18,117.516,14.035,100.097,-0.0000916
10.23,118.016,14.035,100.097,0.0004122
10.28,118.516,14.035,100.097,-0.0002747
10.33,119.016,14.035,100.097,-0.0004121
10.38,119.516,14.035,100.096,0.0000458
10.43,120.016,14.035,100.097,0.0000916
10.48,120.516,14.035,100.096,-0.0005497
10.53,121.016,14.035,100.096,0.0002291
10.58,121.516,14.035,100.096,0.0004585
10.63,122.016,14.035,100.096,-0.0007335
10.68,122.517,14.035,100.096,-0.0001833
10.73,123.017,14.035,100.096,0.0004582
10.78,123.517,14.035,100.096,-0.0005957
10.83,124.017,14.035,100.096,-0.0008245
10.88,124.517,14.035,100.096,0.0004584
10.93,125.017,14.035,100.096,-0.0000458
10.98,125.517,14.035,100.096,-0.0004585
11.03,126.017,14.035,100.096,0.0005043
11.08,126.517,14.035,100.096,0.0003209
11.13,127.017,14.035,100.096,-0.0000459
11.18,127.517,14.035,100.096,0.0001376
11.24,128.018,14.035,100.096,0.0005505
11.29,128.518,14.035,100.096,-0.0005963
11.34,129.018,14.035,100.096,-0.0003212
11.39,129.518,14.035,100.096,0.0008261
11.44,130.018,14.035,100.096,-0.0001836
11.49,130.518,14.035,100.096,0.0004126
11.54,131.018,14.035,100.096,0.0002744
11.59,131.518,14.035,100.096,-0.0002743
11.64,132.018,14.035,100.096,-0.0011910
11.69,132.518,14.035,100.096,0.0004587
11.74,133.018,14.035,100.096,0.0003212
11.79,133.518,14.035,100.096,-0.0009631
11.84,134.019,14.035,100.096,-0.0002293
11.89,134.519,14.035,100.096,0.0006414
11.94,135.019,14.035,100.096,-0.0007319
11.99,135.519,14.035,100.095,-0.0004572
12.04,136.019,14.035,100.095,0.0003199
12.09,136.519,14.035,100.095,-0.0006397
12.14,137.019,14.034,100.095,-0.0014159
12.19,137.519,14.034,100.095,0.0000000
12.24,138.019,14.034,100.095,-0.0005934
12.29,138.519,14.034,100.094,-0.0016449
12.34,139.019,14.034,100.094,-0.0006391
12.39,139.52,14.034,100.093,-0.0002736
12.43,140.02,14.034,100.093,-0.0014603
12.48,140.52,14.034,100.092,-0.0014156
12.53,141.02,14.034,100.091,-0.0011418
12.58,141.52,14.034,100.091,-0.0020507
12.64,142.02,14.034,100.089,-0.0024590
12.68,142.52,14.034,100.088,-0.0015480
12.73,143.02,14.033,100.088,-0.0019595
12.78,143.52,14.033,100.086,-0.0023217
12.83,144.02,14.033,100.085,-0.0020932
12.88,144.52,14.033,100.084,-0.0017329
12.93,145.021,14.033,100.083,-0.0029634
12.98,145.521,14.033,100.082,-0.0015996
13.03,146.021,14.033,100.082,-0.0012809
13.08,146.521,14.032,100.081,-0.0023788
13.13,147.021,14.032,100.08,-0.0016471
13.18,147.521,14.032,100.079,-0.0010071
13.23,148.021,14.032,100.078,-0.0018795
13.28,148.521,14.032,100.077,-0.0020679
13.33,149.021,14.032,100.077,-0.0007815
13.38,149.521,14.032,100.076,-0.0013787
13.43,150.021,14.032,100.075,-0.0017934
13.48,150.522,14.032,100.074,-0.0017008
13.53,151.022,14.031,100.074,-0.0011948
13.58,151.522,14.031,100.073,-0.0016533
13.64,152.022,14.031,100.072,-0.0011935
13.69,152.522,14.031,100.072,-0.0008260
13.74,153.022,14.031,100.072,-0.0013315
13.79,153.522,14.031,100.071,-0.0016977
13.84,154.022,14.031,100.07,-0.0011478
13.89,154.522,14.031,100.07,-0.0012861
13.94,155.022,14.031,100.069,-0.0010563
13.99,155.522,14.031,100.068,-0.0005505
14.04,156.023,14.031,100.068,-0.0013759
14.09,156.523,14.031,100.067,-0.0018349
14.14,157.023,14.03,100.066,-0.0011935
14.19,157.523,14.03,100.066,-0.0008262
14.24,158.023,14.03,100.065,-0.0014255
14.29,158.523,14.03,100.064,-0.0011474
14.34,159.023,14.03,100.064,-0.0011498
14.39,159.523,14.03,100.063,-0.0017926
14.44,160.023,14.03,100.063,-0.0015607
14.49,160.523,14.03,100.062,-0.0006866
14.54,161.023,14.03,100.062,-0.0017380
14.59,161.523,14.03,100.061,-0.0019671
14.64,162.024,14.03,100.06,-0.0007325
14.69,162.524,14.029,100.059,-0.0020604
14.74,163.024,14.029,100.058,-0.0019236
14.79,163.524,14.029,100.057,-0.0011918
14.84,164.024,14.029,100.057,-0.0011006
14.89,164.524,14.029,100.056,-0.0023859
14.94,165.024,14.029,100.055,-0.0014696
14.99,165.524,14.029,100.055,-0.0008266
15.04,166.024,14.029,100.054,-0.0017434
15.09,166.524,14.029,100.053,-0.0014686
15.14,167.024,14.029,100.053,-0.0011471
15.19,167.525,14.028,100.052,-0.0018346
15.24,168.025,14.028,100.051,-0.0024301
15.29,168.525,14.028,100.05,-0.0010999
15.34,169.025,14.028,100.049,-0.0013754
15.39,169.525,14.028,100.048,-0.0022457
15.44,170.025,14.028,100.047,-0.0012359
15.49,170.525,14.028,100.047,-0.0010067
15.54,171.025,14.028,100.046,-0.0022855
15.59,171.525,14.027,100.045,-0.0016453
15.64,172.025,14.027,100.044,-0.0013721
15.69,172.525,14.027,100.043,-0.0023831
15.74,173.026,14.027,100.042,-0.0016975
15.79,173.526,14.027,100.041,-0.0014692
15.84,174.026,14.027,100.04,-0.0024789
15.89,174.526,14.027,100.039,-0.0026154
15.94,175.026,14.027,100.038,-0.0015146
15.99,175.526,14.026,100.038,-0.0017895
16.04,176.026,14.026,100.037,-0.0018352
16.09,176.526,14.026,100.036,-0.0016064
16.14,177.026,14.026,100.035,-0.0012842
16.19,177.526,14.026,100.034,-0.0021992
16.24,178.026,14.026,100.033,-0.0018778
16.29,178.527,14.026,100.032,-0.0017862
16.34,179.027,14.025,100.031,-0.0027007
16.39,179.527,14.025,100.03,-0.0022879
16.44,180.027,14.025,100.029,-0.0016014
16.49,180.527,14.025,100.028,-0.0027460
16.54,181.027,14.025,100.026,-0.0023810
16.59,181.527,14.025,100.025,-0.0017406
16.64,182.027,14.025,100.025,-0.0019694
16.69,182.527,14.024,100.023,-0.0028381
16.74,183.027,14.024,100.022,-0.0019679
16.79,183.527,14.024,100.021,-0.0019238
16.84,184.028,14.024,100.02,-0.0024274
16.89,184.528,14.024,100.019,-0.0023347
16.94,185.028,14.024,100.018,-0.0017412
16.99,185.528,14.023,100.017,-0.0026574
17.04,186.028,14.023,100.015,-0.0025658
17.09,186.528,14.023,100.014,-0.0016041
17.14,187.028,14.023,100.013,-0.0022915
17.19,187.528,14.023,100.012,-0.0029770
17.24,188.028,14.023,100.011,-0.0019241
17.29,188.528,14.022,100.01,-0.0019707
17.34,189.028,14.022,100.008,-0.0031193
17.39,189.528,14.022,100.007,-0.0021106
17.44,190.029,14.022,100.006,-0.0016514
17.49,190.529,14.022,100.005,-0.0029784
17.54,191.029,14.022,100.004,-0.0022422
17.59,191.529,14.021,100.002,-0.0021958
17.64,192.029,14.021,100.001,-0.0028812
17.69,192.529,14.021,100,-0.0030242
17.74,193.029,14.021,99.999,-0.0018794
17.79,193.529,14.021,99.998,-0.0025693
17.84,194.029,14.021,99.996,-0.0030714
17.89,194.529,14.02,99.995,-0.0022904
17.94,195.029,14.02,99.994,-0.0018770
17.99,195.53,14.02,99.992,-0.0027925
18.04,196.03,14.02,99.991,-0.0027490
18.09,196.53,14.02,99.99,-0.0023373
18.14,197.03,14.02,99.988,-0.0030253
18.19,197.53,14.019,99.987,-0.0026135
18.24,198.03,14.019,99.986,-0.0021082
18.29,198.53,14.019,99.984,-0.0029323
18.34,199.03,14.019,99.983,-0.0031637
18.39,199.53,14.019,99.981,-0.0022010
18.44,200.03,14.018,99.98,-0.0025229
18.49,200.53,14.018,99.979,-0.0027548
18.54,201.031,14.018,99.977,-0.0021579
18.59,201.531,14.018,99.976,-0.0021093
18.64,202.031,14.018,99.975,-0.0033456
18.69,202.531,14.017,99.974,-0.0021068
18.74,203.031,14.017,99.973,-0.0020591
18.79,203.531,14.017,99.971,-0.0031093
18.84,204.031,14.017,99.97,-0.0026990
18.89,204.531,14.017,99.968,-0.0024256
18.94,205.031,14.017,99.967,-0.0036586
18.99,205.531,14.016,99.965,-0.0032479
19.04,206.031,14.016,99.964,-0.0025186
19.09,206.532,14.016,99.963,-0.0029770
19.14,207.032,14.016,99.961,-0.0032503
19.19,207.532,14.015,99.96,-0.0025665
19.24,208.032,14.015,99.959,-0.0022457
19.29,208.532,14.015,99.957,-0.0034824
19.34,209.032,14.015,99.955,-0.0028878
19.39,209.532,14.015,99.954,-0.0019725
19.44,210.032,14.015,99.953,-0.0036215
19.49,210.532,14.014,99.951,-0.0026135
19.54,211.032,14.014,99.95,-0.0021560
19.59,211.532,14.014,99.949,-0.0031651
19.64,212.033,14.014,99.947,-0.0036640
19.69,212.533,14.014,99.946,-0.0026532
19.74,213.033,14.013,99.944,-0.0033830
19.79,213.533,14.013,99.943,-0.0031530
19.84,214.033,14.013,99.941,-0.0032458
19.89,214.533,14.013,99.94,-0.0026115
19.94,215.033,14.012,99.938,-0.0036205
19.99,215.533,14.012,99.936,-0.0030240
20.04,216.033,14.012,99.935,-0.0026164
20.09,216.533,14.012,99.933,-0.0033012
20.14,217.033,14.012,99.931,-0.0031596
20.19,217.533,14.011,99.93,-0.0032549
20.24,218.034,14.011,99.928,-0.0033021
20.29,218.534,14.011,99.927,-0.0035721
20.34,219.034,14.011,99.925,-0.0026532
20.39,219.534,14.01,99.924,-0.0029277
20.44,220.034,14.01,99.922,-0.0037532
20.49,220.534,14.01,99.92,-0.0030220
20.54,221.034,14.01,99.919,-0.0025190
20.59,221.534,14.01,99.917,-0.0037115
20.64,222.034,14.009,99.916,-0.0028435
20.69,222.534,14.009,99.914,-0.0027027
20.74,223.034,14.009,99.913,-0.0034805
20.79,223.535,14.009,99.911,-0.0033416
20.84,224.035,14.008,99.91,-0.0030233
20.89,224.535,14.008,99.908,-0.0031164
20.94,225.035,14.008,99.906,-0.0032545
20.99,225.535,14.008,99.905,-0.0028427
21.04,226.035,14.008,99.903,-0.0027525
21.09,226.535,14.007,99.902,-0.0037580
21.14,227.035,14.007,99.9,-0.0034350
21.19,227.535,14.007,99.898,-0.0025190
21.24,228.035,14.007,99.897,-0.0039395
21.29,228.535,14.006,99.895,-0.0031657
21.34,229.036,14.006,99.893,-0.0024736
21.39,229.536,14.006,99.892,-0.0039421
21.44,230.036,14.006,99.89,-0.0038497
21.49,230.536,14.005,99.888,-0.0028833
21.54,231.036,14.005,99.887,-0.0021053
21.59,231.536,14.005,99.885,-0.0038909
21.64,232.036,14.005,99.883,-0.0035721
21.69,232.536,14.005,99.882,-0.0027047
21.74,233.036,14.004,99.88,-0.0038937
21.79,233.536,14.004,99.878,-0.0033889
21.84,234.036,14.004,99.877,-0.0028838
21.89,234.537,14.004,99.875,-0.0042136
21.94,235.037,14.003,99.873,-0.0033883
21.99,235.537,14.003,99.871,-0.0026581
22.05,236.037,14.003,99.87,-0.0034372
22.1,236.537,14.003,99.868,-0.0038049
22.15,237.037,14.002,99.866,-0.0032089
22.2,237.537,14.002,99.865,-0.0030239
22.25,238.037,14.002,99.863,-0.0035299
22.3,238.537,14.002,99.861,-0.0038028
22.35,239.037,14.001,99.86,-0.0027032
22.4,239.537,14.001,99.858,-0.0038972
22.45,240.038,14.001,99.856,-0.0037200
22.5,240.538,14.001,99.854,-0.0031233
22.55,241.038,14.001,99.853,-0.0038550
22.6,241.538,14,99.851,-0.0037546
22.65,242.038,14,99.849,-0.0030184
22.7,242.538,14,99.848,-0.0032545
22.75,243.038,14,99.846,-0.0039769
22.8,243.538,13.999,99.844,-0.0033416
22.85,244.038,13.999,99.842,-0.0030295
22.9,244.538,13.999,99.841,-0.0038014
22.95,245.038,13.999,99.839,-0.0035633
23,245.538,13.998,99.837,-0.0028336
23.05,246.039,13.998,99.836,-0.0041636
23.1,246.539,13.998,99.834,-0.0034341
23.15,247.039,13.998,99.832,-0.0032524
23.2,247.539,13.997,99.831,-0.0035813
23.25,248.039,13.997,99.828,-0.0037621
23.3,248.539,13.997,99.827,-0.0032101
23.35,249.039,13.997,99.825,-0.0031122
23.4,249.539,13.996,99.823,-0.0037037
23.45,250.039,13.996,99.822,-0.0032060
23.5,250.539,13.996,99.82,-0.0031193
23.55,251.039,13.996,99.818,-0.0039890
23.6,251.54,13.995,99.816,-0.0037152
23.65,252.04,13.995,99.815,-0.0029347
23.7,252.54,13.995,99.813,-0.0034843
23.75,253.04,13.995,99.811,-0.0035704
23.8,253.54,13.994,99.809,-0.0030641
23.85,254.04,13.994,99.808,-0.0037047
23.9,254.54,13.994,99.806,-0.0039431
23.95,255.04,13.994,99.804,-0.0033954
24,255.54,13.993,99.803,-0.0027869
24.05,256.04,13.993,99.801,-0.0042086
24.1,256.54,13.993,99.799,-0.0034799
24.15,257.041,13.993,99.797,-0.0027930
24.2,257.541,13.992,99.795,-0.0041766
24.25,258.041,13.992,99.793,-0.0037142
24.3,258.541,13.992,99.791,-0.0028925
24.35,259.041,13.992,99.79,-0.0038934
24.4,259.541,13.991,99.788,-0.0040774
24.45,260.041,13.991,99.786,-0.0030220
24.5,260.541,13.991,99.784,-0.0033394
24.55,261.041,13.991,99.782,-0.0038462
24.6,261.541,13.99,99.78,-0.0034799
24.65,262.041,13.99,99.779,-0.0037067
24.7,262.542,13.99,99.777,-0.0048482
24.75,263.042,13.99,99.775,-0.0031553
24.8,263.542,13.989,99.773,-0.0029250
24.85,264.042,13.989,99.771,-0.0038870
24.9,264.542,13.989,99.769,-0.0042544
24.95,265.042,13.989,99.768,-0.0034353
25,265.542,13.988,99.766,-0.0037210
25.05,266.042,13.988,99.764,-0.0047361
25.1,266.542,13.988,99.762,-0.0041820
25.15,267.042,13.987,99.76,-0.0037156
25.2,267.542,13.987,99.758,-0.0045355
25.25,268.043,13.987,99.756,-0.0033895
25.3,268.543,13.987,99.754,-0.0031593
25.35,269.043,13.986,99.752,-0.0047637
25.4,269.543,13.986,99.75,-0.0043956
25.45,270.043,13.986,99.748,-0.0030236
25.5,270.543,13.986,99.747,-0.0041720
25.55,271.043,13.985,99.744,-0.0041706
25.6,271.543,13.985,99.743,-0.0034422
25.65,272.043,13.985,99.741,-0.0032509
25.7,272.543,13.985,99.739,-0.0040714
25.75,273.043,13.984,99.737,-0.0035688
25.8,273.543,13.984,99.735,-0.0038073
25.85,274.044,13.984,99.733,-0.0046177
25.9,274.544,13.983,99.731,-0.0041591
25.95,275.044,13.983,99.729,-0.0023330
26,275.544,13.983,99.727,-0.0047619
26.05,276.044,13.983,99.725,-0.0044414
26.1,276.544,13.982,99.724,-0.0035308
26.15,277.044,13.982,99.722,-0.0036677
26.2,277.544,13.982,99.72,-0.0034365
26.25,278.044,13.982,99.718,-0.0039420
26.3,278.544,13.981,99.716,-0.0040308
26.35,279.044,13.981,99.714,-0.0044913
26.4,279.545,13.981,99.712,-0.0030258
26.45,280.045,13.981,99.71,-0.0030237
26.5,280.545,13.98,99.709,-0.0047637
26.55,281.045,13.98,99.706,-0.0040729
26.6,281.545,13.98,99.705,-0.0029724
26.65,282.045,13.979,99.703,-0.0043394
26.7,282.545,13.979,99.701,-0.0044446
26.75,283.045,13.979,99.699,-0.0038991
26.8,283.545,13.979,99.697,-0.0038962
26.85,284.045,13.978,99.695,-0.0039835
26.9,284.545,13.978,99.692,-0.0033443
26.95,285.046,13.978,99.691,-0.0037103
27,285.546,13.978,99.689,-0.0044013
27.05,286.046,13.977,99.687,-0.0036657
27.1,286.546,13.977,99.685,-0.0033901
27.15,287.046,13.977,99.683,-0.0045805
27.2,287.546,13.976,99.681,-0.0043498
27.25,288.046,13.976,99.679,-0.0034341
27.3,288.546,13.976,99.677,-0.0038919
27.35,289.046,13.976,99.675,-0.0042614
27.4,289.546,13.975,99.673,-0.0033870
27.45,290.046,13.975,99.671,-0.0037088
27.5,290.547,13.975,99.669,-0.0045737
27.55,291.047,13.974,99.667,-0.0039327
27.6,291.547,13.974,99.665,-0.0034384
27.65,292.047,13.974,99.663,-0.0047593
27.7,292.547,13.974,99.66,-0.0041667
27.75,293.047,13.973,99.659,-0.0032509
27.8,293.547,13.973,99.657,-0.0038511
27.85,294.047,13.973,99.654,-0.0048165
27.9,294.547,13.972,99.652,-0.0037245
27.95,295.047,13.972,99.65,-0.0044938
28,295.547,13.972,99.648,-0.0043016
28.05,296.048,13.972,99.646,-0.0033395
28.1,296.548,13.971,99.645,-0.0038412
28.15,297.048,13.971,99.643,-0.0044373
28.2,297.548,13.971,99.64,-0.0035224
28.25,298.048,13.97,99.639,-0.0036597
28.3,298.548,13.97,99.637,-0.0046635
28.35,299.048,13.97,99.634,-0.0048580
28.4,299.548,13.97,99.632,-0.0034831
28.45,300.048,13.969,99.63,-0.0051320
28.5,300.548,13.969,99.628,-0.0044938
28.55,301.048,13.969,99.626,-0.0038053
28.6,301.548,13.968,99.624,-0.0047205
28.65,302.049,13.968,99.621,-0.0044921
28.7,302.549,13.968,99.619,-0.0034818
28.75,303.049,13.967,99.617,-0.0040293
28.8,303.549,13.967,99.615,-0.0051348
28.85,304.049,13.967,99.613,-0.0039436
28.9,304.549,13.967,99.611,-0.0038053
28.95,305.049,13.966,99.609,-0.0048553
29,305.549,13.966,99.606,-0.0042086
29.05,306.049,13.966,99.604,-0.0036603
29.1,306.549,13.965,99.602,-0.0042109
29.15,307.049,13.965,99.6,-0.0046729
29.2,307.55,13.965,99.598,-0.0038905
29.25,308.05,13.964,99.596,-0.0046721
29.3,308.55,13.964,99.593,-0.0053552
29.35,309.05,13.964,99.591,-0.0042063
29.4,309.55,13.964,99.589,-0.0043419
29.45,310.05,13.963,99.587,-0.0052559
29.5,310.55,13.963,99.584,-0.0042566
29.55,311.05,13.963,99.582,-0.0039391
29.6,311.55,13.962,99.58,-0.0048956
29.65,312.05,13.962,99.578,-0.0047161
29.7,312.55,13.962,99.576,-0.0034373
29.75,313.051,13.961,99.574,-0.0044142
29.8,313.551,13.961,99.571,-0.0039842
29.85,314.051,13.961,99.569,-0.0042977
29.9,314.551,13.96,99.567,-0.0045805
29.95,315.051,13.96,99.565,-0.0048929
30,315.551,13.96,99.562,-0.0045728
30.05,316.051,13.96,99.56,-0.0042536
30.1,316.551,13.959,99.558,-0.0051226
30.15,317.051,13.959,99.556,-0.0041613
30.2,317.551,13.959,99.554,-0.0038482
30.25,318.051,13.958,99.552,-0.0050852
30.3,318.552,13.958,99.549,-0.0048094
30.35,319.052,13.958,99.547,-0.0037983
30.4,319.552,13.957,99.545,-0.0043056
30.45,320.052,13.957,99.543,-0.0047637
30.5,320.552,13.957,99.54,-0.0043522
30.55,321.052,13.956,99.538,-0.0044013
30.6,321.552,13.956,99.536,-0.0051329
30.65,322.052,13.956,99.534,-0.0046288
30.7,322.552,13.955,99.531,-0.0041667
30.75,323.052,13.955,99.529,-0.0054059
30.8,323.552,13.955,99.527,-0.0050412
30.85,324.053,13.954,99.525,-0.0038941
30.9,324.553,13.954,99.523,-0.0049468
30.95,325.053,13.954,99.52,-0.0051301
31,325.553,13.954,99.518,-0.0041209
31.05,326.053,13.953,99.516,-0.0046305
31.1,326.553,13.953,99.513,-0.0047619
31.15,327.053,13.953,99.511,-0.0044365
31.2,327.553,13.952,99.509,-0.0046161
31.25,328.053,13.952,99.506,-0.0049387
31.3,328.553,13.952,99.504,-0.0046110
31.35,329.053,13.951,99.502,-0.0039255
31.4,329.553,13.951,99.5,-0.0051683
31.45,330.054,13.951,99.497,-0.0052217
31.5,330.554,13.95,99.495,-0.0042614
31.55,331.054,13.95,99.493,-0.0050796
31.6,331.554,13.95,99.49,-0.0054049
31.65,332.054,13.949,99.488,-0.0047222
31.7,332.554,13.949,99.485,-0.0047706
31.75,333.054,13.949,99.483,-0.0056036
31.8,333.554,13.948,99.48,-0.0047308
31.85,334.054,13.948,99.478,-0.0049101
31.9,334.554,13.948,99.475,-0.0054467
31.95,335.054,13.947,99.473,-0.0050321
32,335.555,13.947,99.47,-0.0043025
32.05,336.055,13.947,99.468,-0.0054388
32.1,336.555,13.946,99.465,-0.0052169
32.15,337.055,13.946,99.463,-0.0046686
32.2,337.555,13.945,99.46,-0.0053114
32.25,338.055,13.945,99.458,-0.0050385
32.3,338.555,13.945,99.455,-0.0049010
32.35,339.055,13.944,99.453,-0.0048571
32.4,339.555,13.944,99.45,-0.0057215
32.45,340.055,13.944,99.447,-0.0050366
32.5,340.555,13.943,99.445,-0.0048957
32.55,341.056,13.943,99.442,-0.0058555
32.6,341.556,13.943,99.439,-0.0056725
32.65,342.056,13.942,99.437,-0.0052169
32.7,342.556,13.942,99.434,-0.0054029
32.75,343.056,13.941,99.431,-0.0056756
32.8,343.556,13.941,99.429,-0.0052636
32.85,344.056,13.941,99.426,-0.0059120
32.9,344.556,13.94,99.423,-0.0058203
32.95,345.056,13.94,99.42,-0.0047645
33,345.556,13.94,99.418,-0.0048993
33.05,346.056,13.939,99.415,-0.0058576
33.1,346.557,13.939,99.412,-0.0055759
33.15,347.057,13.938,99.409,-0.0056600
33.2,347.557,13.938,99.407,-0.0060820
33.25,348.057,13.937,99.404,-0.0063244
33.3,348.557,13.937,99.401,-0.0055066
33.35,349.057,13.937,99.398,-0.0061468
33.4,349.557,13.936,99.395,-0.0059578
33.45,350.057,13.936,99.392,-0.0052752
33.5,350.557,13.936,99.389,-0.0053650
33.55,351.057,13.935,99.386,-0.0068769
33.6,351.557,13.935,99.383,-0.0063210
33.65,352.058,13.934,99.38,-0.0055342
33.7,352.558,13.934,99.377,-0.0062614
33.75,353.058,13.933,99.374,-0.0056995
33.8,353.558,13.933,99.371,-0.0057534
33.85,354.058,13.933,99.368,-0.0065404
33.9,354.558,13.932,99.365,-0.0065476
33.95,355.058,13.932,99.362,-0.0053172
34,355.558,13.931,99.359,-0.0065162
34.05,356.058,13.931,99.355,-0.0066091
34.1,356.558,13.93,99.352,-0.0062798
34.15,357.058,13.93,99.349,-0.0064442
34.2,357.558,13.929,99.345,-0.0073126
34.25,358.059,13.929,99.342,-0.0066631
34.3,358.559,13.928,99.339,-0.0069343
34.35,359.059,13.928,99.335,-0.0070906
34.4,359.559,13.927,99.332,-0.0066887
34.45,360.059,13.927,99.328,-0.0065440
34.5,360.559,13.926,99.325,-0.0077064
34.55,361.059,13.926,99.321,-0.0072058
34.6,361.559,13.925,99.318,-0.0066538
34.65,362.059,13.925,99.314,-0.0072151
34.7,362.559,13.924,99.31,-0.0074353
34.75,363.059,13.924,99.307,-0.0070119
34.8,363.56,13.923,99.303,-0.0074202
34.85,364.06,13.923,99.299,-0.0088047
34.9,364.56,13.922,99.295,-0.0077456
34.95,365.06,13.922,99.291,-0.0073449
35,365.56,13.921,99.288,-0.0067185
35.05,366.06,13.921,99.284,-0.0071834
35.1,366.56,13.92,99.28,-0.0071860
35.15,367.06,13.92,99.277,-0.0076325
35.2,367.56,13.919,99.273,-0.0080025
35.25,368.06,13.919,99.268,-0.0077381
35.3,368.56,13.918,99.264,-0.0095360
35.35,369.061,13.917,99.259,-0.0093950
35.4,369.561,13.917,99.255,-0.0094374
35.45,370.061,13.916,99.25,-0.0091491
35.5,370.561,13.915,99.246,-0.0095186
35.55,371.061,13.915,99.241,-0.0092661
35.61,371.561,13.914,99.236,-0.0091200
35.66,372.061,13.913,99.231,-0.0098955
35.71,372.561,13.913,99.226,-0.0094850
35.76,373.061,13.912,99.222,-0.0097158
35.81,373.561,13.911,99.217,-0.0098443
35.86,374.061,13.911,99.212,-0.0098263
35.91,374.562,13.91,99.207,-0.0100677
35.96,375.062,13.909,99.202,-0.0105007
36.01,375.562,13.908,99.196,-0.0110152
36.06,376.062,13.908,99.191,-0.0105201
36.11,376.562,13.907,99.186,-0.0109951
36.16,377.062,13.906,99.18,-0.0113803
36.21,377.562,13.905,99.174,-0.0115174
36.26,378.062,13.905,99.169,-0.0116152
36.31,378.562,13.904,99.163,-0.0120355
36.36,379.062,13.903,99.157,-0.0119854
36.41,379.562,13.902,99.151,-0.0121683
36.46,380.063,13.901,99.145,-0.0123056
36.51,380.563,13.9,99.138,-0.0121727
36.56,381.063,13.899,99.132,-0.0128322
36.61,381.563,13.898,99.125,-0.0134478
36.66,382.063,13.898,99.119,-0.0137438
36.71,382.563,13.897,99.112,-0.0136555
36.76,383.063,13.896,99.105,-0.0135740
36.81,383.563,13.895,99.098,-0.0148348
36.86,384.063,13.894,99.09,-0.0150229
36.91,384.563,13.893,99.083,-0.0150228
36.95,385.063,13.891,99.075,-0.0156108
37,385.563,13.89,99.067,-0.0158199
37.06,386.064,13.889,99.059,-0.0159379
37.11,386.564,13.888,99.051,-0.0170277
37.16,387.064,13.887,99.042,-0.0173789
37.21,387.564,13.886,99.034,-0.0175005
37.26,388.064,13.884,99.025,-0.0180011
37.31,388.564,13.883,99.016,-0.0182793
37.36,389.064,13.882,99.007,-0.0181777
37.41,389.564,13.881,98.998,-0.0184576
37.46,390.064,13.879,98.988,-0.0192694
37.51,390.564,13.878,98.978,-0.0195791
37.56,391.064,13.876,98.968,-0.0198210
37.61,391.565,13.875,98.958,-0.0209438
37.66,392.065,13.874,98.948,-0.0211345
37.71,392.565,13.872,98.937,-0.0211880
37.76,393.065,13.871,98.927,-0.0219780
37.81,393.565,13.869,98.915,-0.0226773
37.86,394.065,13.867,98.904,-0.0227899
37.91,394.565,13.866,98.892,-0.0234862
37.96,395.065,13.864,98.88,-0.0248165
38.01,395.565,13.862,98.868,-0.0248396
38.06,396.065,13.861,98.856,-0.0251693
38.11,396.565,13.859,98.842,-0.0266337
38.16,397.066,13.857,98.829,-0.0269083
38.21,397.566,13.855,98.815,-0.0274575
38.26,398.066,13.853,98.801,-0.0284184
38.31,398.566,13.851,98.787,-0.0291858
38.36,399.066,13.849,98.772,-0.0292879
38.41,399.566,13.847,98.757,-0.0302892
38.46,400.066,13.845,98.742,-0.0317308
38.51,400.566,13.842,98.726,-0.0313243
38.56,401.066,13.84,98.71,-0.0323406
38.61,401.566,13.838,98.693,-0.0337417
38.66,402.066,13.836,98.676,-0.0344780
38.71,402.567,13.833,98.659,-0.0345617
38.76,403.067,13.831,98.641,-0.0362710
38.81,403.567,13.828,98.623,-0.0367876
38.86,404.067,13.826,98.605,-0.0372827
38.91,404.567,13.823,98.586,-0.0385037
38.96,405.067,13.82,98.566,-0.0391511
39.01,405.567,13.817,98.546,-0.0397747
39.06,406.067,13.814,98.526,-0.0411862
39.11,406.567,13.812,98.505,-0.0427131
39.16,407.067,13.808,98.483,-0.0434164
39.21,407.567,13.805,98.461,-0.0444332
39.26,408.068,13.802,98.439,-0.0465170
39.31,408.568,13.799,98.415,-0.0473925
39.36,409.068,13.796,98.391,-0.0486187
39.41,409.568,13.792,98.366,-0.0504390
39.46,410.068,13.788,98.341,-0.0521024
39.51,410.568,13.785,98.314,-0.0527108
39.56,411.068,13.781,98.288,-0.0550229
39.6,411.568,13.777,98.261,-0.0563335
39.65,412.068,13.773,98.232,-0.0574423
39.7,412.568,13.769,98.203,-0.0596721
39.75,413.068,13.765,98.173,-0.0617782
39.8,413.568,13.761,98.141,-0.0632326
39.86,414.069,13.756,98.108,-0.0652951
39.91,414.569,13.751,98.075,-0.0675737
39.96,415.069,13.746,98.041,-0.0697344
40.01,415.569,13.741,98.006,-0.0711081
40.06,416.069,13.736,97.969,-0.0742637
40.1,416.569,13.731,97.933,-0.0765781
40.15,417.069,13.726,97.894,-0.0776792
40.2,417.569,13.72,97.852,-0.0924521
40.25,418.069,13.713,97.805,-0.0997714
40.3,418.569,13.706,97.756,-0.1020130
40.35,419.069,13.699,97.705,-0.1046250
40.4,419.57,13.692,97.649,-0.1211730
40.45,420.07,13.683,97.591,-0.1157160
40.5,420.57,13.675,97.533,-0.1200750
40.55,421.07,13.667,97.472,-0.1296410
40.6,421.57,13.658,97.408,-0.1228770
40.66,422.07,13.648,97.342,-0.1305940
40.71,422.57,13.639,97.273,-0.1436470
40.76,423.07,13.629,97.202,-0.1373780
40.81,423.57,13.619,97.132,-0.1348440
40.86,424.07,13.609,97.058,-0.1521100
40.91,424.57,13.598,96.981,-0.1573900
40.96,425.071,13.587,96.906,-0.1470620
41.01,425.571,13.577,96.832,-0.1533820
41.06,426.071,13.566,96.752,-0.1633470
41.11,426.571,13.554,96.669,-0.1702340
41.16,427.071,13.542,96.585,-0.1735590
41.21,427.571,13.53,96.495,-0.1873860
41.26,428.071,13.517,96.401,-0.1850730
41.31,428.571,13.504,96.312,-0.1737080
41.36,429.071,13.491,96.216,-0.1994040
41.41,429.571,13.477,96.116,-0.2052540
41.46,430.071,13.462,96.012,-0.2119010
41.51,430.572,13.446,95.901,-0.2322140
41.56,431.072,13.43,95.784,-0.2407990
41.61,431.572,13.413,95.664,-0.2519240
41.66,432.072,13.395,95.535,-0.2705980
41.71,432.572,13.376,95.396,-0.2804260
41.76,433.072,13.356,95.259,-0.2732470
41.81,433.572,13.336,95.114,-0.2996060
41.86,434.072,13.314,94.954,-0.3215390
41.91,434.572,13.291,94.791,-0.3366610
41.96,435.072,13.267,94.618,-0.3428110
42.01,435.572,13.242,94.445,-0.3733520
42.06,436.073,13.216,94.259,-0.3845970
42.11,436.573,13.189,94.068,-0.3855450
42.16,437.073,13.16,93.861,-0.4386090
42.21,437.573,13.131,93.653,-0.3941960
42.26,438.073,13.103,93.453,-0.4020160
42.31,438.573,13.074,93.247,-0.4367220
42.36,439.073,13.042,93.018,-0.4600120
42.41,439.573,13.01,92.786,-0.4510350
42.46,440.073,12.977,92.551,-0.4946490
42.51,440.573,12.941,92.294,-0.5345870
42.56,441.073,12.903,92.022,-0.5668650
42.61,441.573,12.861,91.725,-0.6359370
42.66,442.074,12.817,91.41,-0.5918960
42.71,442.574,12.775,91.11,-0.6288850
42.76,443.074,12.73,90.79,-0.6875980
42.81,443.574,12.68,90.438,-0.7437310
42.86,444.074,12.628,90.066,-0.7602950
42.91,444.574,12.572,89.667,-0.8078300
42.96,445.074,12.515,89.257,-0.8166060
43.01,445.574,12.461,88.873,-0.6885570
43.06,446.074,12.411,88.513,-0.8312960
43.11,446.574,12.349,88.072,-0.9008260
43.16,447.074,12.283,87.602,-0.9629570
43.21,447.575,12.212,87.097,-0.9885740
43.26,448.075,12.137,86.564,-1.08953
43.31,448.575,12.055,85.975,-1.36698
43.36,449.075,11.971,85.378,-1.1721
43.41,449.575,11.884,84.761,-1.23368
43.46,450.075,11.797,84.14,-1.2642
43.51,450.575,11.704,83.477,-1.33228
43.56,451.075,11.61,82.803,-1.39231
43.61,451.575,11.51,82.092,-1.45635
43.66,452.075,11.405,81.342,-1.48496
43.71,452.575,11.302,80.609,-1.49702
43.76,453.076,11.192,79.826,-1.54749
43.81,453.576,11.086,79.068,-1.58693
43.86,454.076,10.968,78.225,-1.77255
43.91,454.576,10.844,77.343,-1.73077
43.96,455.076,10.726,76.499,-1.86982
44.01,455.576,10.588,75.515,-1.88743
44.06,456.076,10.46,74.601,-1.85119
44.11,456.576,10.32,73.605,-1.98407
44.16,457.076,10.18,72.602,-2.13132
44.21,457.576,10.03,71.534,-2.24886
44.26,458.076,9.876,70.438,-2.17674
44.31,458.577,9.714,69.278,-2.28085
44.36,459.077,9.553,68.13,-2.40073
44.41,459.577,9.387,66.947,-2.3304
44.46,460.077,9.211,65.692,-2.62088
44.51,460.577,9.035,64.436,-2.64532
44.56,461.077,8.843,63.071,-2.83937
44.61,461.577,8.643,61.641,-2.82343
44.66,462.077,8.443,60.216,-2.94275
44.71,462.577,8.232,58.712,-3.09107
44.76,463.077,8.011,57.136,-3.04757
44.81,463.577,7.786,55.532,-3.48882
44.86,464.078,7.551,53.851,-3.25446
44.91,464.578,7.314,52.164,-3.55689
44.96,465.078,7.052,50.296,-3.97383
45.01,465.578,6.79,48.427,-3.84704
45.06,466.078,6.509,46.422,-4.17582
45.11,466.578,6.216,44.335,-4.29831
45.16,467.078,5.932,42.304,-3.77928
45.21,467.578,5.647,40.274,-4.13306
45.26,468.078,5.359,38.218,-3.91449
45.31,468.578,5.088,36.291,-3.88749
45.36,469.078,4.813,34.328,-3.83582
45.41,469.578,4.542,32.392,-3.9391
45.46,470.079,4.261,30.392,-4.03021
45.51,470.579,3.977,28.365,-3.99126
45.56,471.079,3.697,26.366,-4.00543
45.61,471.579,3.412,24.333,-3.87213
45.66,472.079,3.136,22.364,-3.92918
45.71,472.579,2.861,20.406,-3.89931
45.76,473.079,2.603,18.567,-3.57652
45.81,473.579,2.35,16.758,-3.69116
45.86,474.079,2.092,14.922,-3.35797
45.91,474.579,1.862,13.283,-3.37344
45.96,475.079,1.636,11.665,-3.05512
46.01,475.58,1.431,10.209,-2.79288
46.06,476.08,1.236,8.816,-2.76142
46.11,476.58,1.054,7.517,-2.49167
46.15,477.08,0.8870000,6.325,-2.43386
46.2,477.58,0.7320000,5.221,-1.84585
46.25,478.08,0.6030000,4.299,-1.78749
46.3,478.58,0.4850000,3.458,-1.52342
46.35,479.08,0.3820000,2.728,-1.31569
46.4,479.58,0.2960000,2.11,-1.13155
46.45,480.08,0.2270000,1.62,-0.9286900
46.5,480.58,0.1710000,1.218,-0.6981670
46.55,481.081,0.1270000,0.9090000,-0.5256750
46.6,481.581,0.0960000,0.6870000,-0.3932570
46.65,482.081,0.0730000,0.5220000,-0.2723440
46.7,482.581,0.0580000,0.4100000,-0.1814820
46.75,483.081,0.0470000,0.3370000,-0.1102310
46.8,483.581,0.0410000,0.2950000,-0.0591616
46.85,484.081,0.0380000,0.2740000,-0.0356061
46.9,484.581,0.0360000,0.2560000,-0.0357557
46.95,485.081,0.0330000,0.2380000,-0.0325253
47,485.581,0.0310000,0.2230000,-0.0274760
47.05,486.081,0.0300000,0.2110000,-0.0224347
47.1,486.582,0.0280000,0.2010000,-0.0179978
47.15,487.082,0.0270000,0.1930000,-0.0138924
47.2,487.582,0.0260000,0.1870000,-0.0106307
47.25,488.082,0.0260000,0.1820000,-0.0085431
47.3,488.582,0.0250000,0.1780000,-0.0069727
47.35,489.082,0.0250000,0.1750000,-0.0050359
47.4,489.582,0.0240000,0.1730000,-0.0042906
47.45,490.082,0.0240000,0.1710000,-0.0029325
47.5,490.582,0.0240000,0.1700000,-0.0019300
47.55,491.082,0.0240000,0.1690000,-0.0019558
47.6,491.582,0.0240000,0.1680000,-0.0014062
47.65,492.083,0.0230000,0.1670000,-0.0007041
47.71,492.583,0.0230000,0.1670000,-0.0010979
47.76,493.083,0.0230000,0.1670000,-0.0010325
47.81,493.583,0.0230000,0.1660000,-0.0000440
47.86,494.083,0.0230000,0.1660000,-0.0001391
47.91,494.583,0.0230000,0.1660000,-0.0002489
47.96,495.083,0.0230000,0.1660000,-0.0005300
48.01,495.583,0.0230000,0.1660000,0.0004433
48.06,496.083,0.0230000,0.1660000,-0.0001853
48.11,496.583,0.0230000,0.1660000,0.0000173
48.16,497.083,0.0230000,0.1660000,0.0001411
48.21,497.583,0.0230000,0.1660000,-0.0001521
48.26,498.084,0.0230000,0.1660000,-0.0001758
48.31,498.584,0.0230000,0.1650000,0.0003011
48.36,499.084,0.0230000,0.1660000,0.0002001
48.41,499.584,0.0230000,0.1660000,0.0000388
48.46,500.084,0.0230000,0.1660000,-0.0001024
48.51,500.584,0.0230000,0.1660000,0.0000914
48.56,501.084,0.0230000,0.1660000,-0.0000116
48.61,501.584,0.0230000,0.1650000,-0.0000148
48.66,502.084,0.0230000,0.1650000,0.0001289
48.71,502.584,0.0230000,0.1650000,0.0000291
48.75,503.084,0.0230000,0.1650000,-0.0001373
48.8,503.585,0.0230000,0.1650000,0.0001625
48.85,504.085,0.0230000,0.1660000,-0.0003369
48.9,504.585,0.0230000,0.1650000,-0.0002194
48.95,505.085,0.0230000,0.1650000,0.0003903
49,505.585,0.0230000,0.1660000,-0.0000230
49.05,506.085,0.0230000,0.1650000,-0.0003914
49.1,506.585,0.0230000,0.1650000,0.0002670
49.15,507.085,0.0230000,0.1660000,0.0001594
49.2,507.585,0.0230000,0.1660000,-0.0004999
49.25,508.085,0.0230000,0.1670000,0.0020486
49.3,508.585,0.0230000,0.1670000,0.0005198
49.35,509.086,0.0230000,0.1680000,0.0008586
49.4,509.586,0.0230000,0.1680000,0.0011973
49.45,510.086,0.0240000,0.1680000,0.0013354
49.5,510.586,0.0240000,0.1690000,-0.0012676
49.55,511.086,0.0240000,0.1680000,-0.0006694
49.6,511.586,0.0240000,0.1690000,-0.0000989
49.65,512.086,0.0240000,0.1680000,-0.0009726
49.7,512.586,0.0230000,0.1670000,-0.0011321
49.75,513.086,0.0230000,0.1670000,-0.0010398
49.8,513.586,0.0230000,0.1670000,-0.0004084
49.85,514.086,0.0230000,0.1660000,0.0000085
49.9,514.587,0.0230000,0.1660000,-0.0001236
49.95,515.087,0.0230000,0.1660000,0.0001717
50,515.587,0.0230000,0.1660000,-0.0002517
50.05,516.087,0.0230000,0.1660000,-0.0007622
50.1,516.587,0.0230000,0.1660000,-0.0010164
50.15,517.087,0.0240000,0.1730000,0.0014284
50.2,517.587,0.0240000,0.1730000,0.0004146
50.25,518.087,0.0240000,0.1730000,-0.0000220
50.3,518.587,0.0240000,0.1730000,-0.0004230
50.35,519.087,0.0240000,0.1730000,-0.0005817
50.4,519.587,0.0240000,0.1730000,-0.0007525
50.45,520.088,0.0240000,0.1720000,-0.0000310
50.5,520.588,0.0240000,0.1720000,-0.0008140
50.55,521.088,0.0240000,0.1720000,-0.0004997
50.6,521.588,0.0240000,0.1720000,0.0001231
50.65,522.088,0.0240000,0.1720000,0.0000261
50.7,522.588,0.0240000,0.1720000,-0.0002226
50.75,523.088,0.0240000,0.1720000,0.0000953
50.8,523.588,0.0240000,0.1720000,-0.0000622
50.85,524.088,0.0240000,0.1720000,-0.0002646
50.9,524.588,0.0240000,0.1720000,-0.0001851
50.95,525.088,0.0240000,0.1720000,-0.0005715
51,525.588,0.0240000,0.1710000,-0.0006917
51.05,526.089,0.0240000,0.1710000,-0.0001038
51.1,526.589,0.0240000,0.1710000,-0.0001621
51.15,527.089,0.0240000,0.1710000,-0.0002489
51.2,527.589,0.0240000,0.1710000,0.0002462
51.25,528.089,0.0240000,0.1710000,0.0002949
51.3,528.589,0.0240000,0.1710000,0.0001552
51.35,529.089,0.0240000,0.1710000,-0.0002859
51.4,529.589,0.0240000,0.1710000,-0.0003493
51.45,530.089,0.0240000,0.1710000,-0.0000507
51.5,530.589,0.0240000,0.1710000,-0.0001446
51.55,531.089,0.0240000,0.1710000,0.0000672
51.6,531.59,0.0240000,0.1710000,0.0000581
51.65,532.09,0.0240000,0.1710000,-0.0002809
51.7,532.59,0.0240000,0.1710000,-0.0002568
51.75,533.09,0.0240000,0.1710000,0.0003313
51.8,533.59,0.0240000,0.1710000,-0.0005345
51.85,534.09,0.0240000,0.1700000,0.0002829
51.9,534.59,0.0240000,0.1700000,0.0000449
51.95,535.09,0.0240000,0.1700000,-0.0003488
52,535.59,0.0240000,0.1700000,-0.0003017
52.05,536.09,0.0240000,0.1700000,0.0003001
52.1,536.59,0.0240000,0.1700000,-0.0002503
52.15,537.091,0.0240000,0.1700000,-0.0004014
52.2,537.591,0.0240000,0.1700000,0.0002563
52.25,538.091,0.0240000,0.1700000,-0.0002886
52.3,538.591,0.0240000,0.1700000,-0.0001197
52.35,539.091,0.0240000,0.1700000,-0.0005073
52.4,539.591,0.0240000,0.1700000,-0.0002039
52.45,540.091,0.0240000,0.1700000,-0.0003400
52.5,540.591,0.0240000,0.1700000,0.0001206
52.55,541.091,0.0240000,0.1700000,0.0004132
52.6,541.591,0.0240000,0.1700000,-0.0002506
52.65,542.091,0.0240000,0.1700000,-0.0002155
52.7,542.592,0.0240000,0.1700000,0.0001180
52.75,543.092,0.0240000,0.1700000,-0.0000438
52.8,543.592,0.0240000,0.1690000,-0.0005480
52.85,544.092,0.0240000,0.1690000,-0.0001392
52.9,544.592,0.0240000,0.1690000,0.0000420
52.95,545.092,0.0240000,0.1690000,0.0002308
53,545.592,0.0240000,0.1690000,0.0000368
53.05,546.092,0.0240000,0.1690000,-0.0000662
53.1,546.592,0.0240000,0.1690000,-0.0003911
53.15,547.092,0.0240000,0.1690000,-0.0002212
53.2,547.592,0.0240000,0.1690000,-0.0000235
53.25,548.093,0.0240000,0.1690000,0.0002939
53.3,548.593,0.0240000,0.1690000,-0.0002464
53.35,549.093,0.0240000,0.1690000,-0.0000941
53.4,549.593,0.0240000,0.1690000,-0.0002605
53.45,550.093,0.0240000,0.1690000,-0.0005016
53.5,550.593,0.0240000,0.1690000,-0.0002093
53.55,551.093,0.0240000,0.1690000,0.0001561
53.6,551.593,0.0240000,0.1690000,-0.0001753
53.65,552.093,0.0240000,0.1690000,0.0002603
53.7,552.593,0.0240000,0.1690000,0.0000089
53.75,553.093,0.0240000,0.1690000,-0.0001098
53.8,553.593,0.0240000,0.1690000,-0.0000690
53.85,554.094,0.0240000,0.1690000,0.0002014
53.9,554.594,0.0240000,0.1690000,0.0000434
53.95,555.094,0.0240000,0.1690000,-0.0002232
54,555.594,0.0240000,0.1690000,-0.0001878
54.05,556.094,0.0240000,0.1690000,-0.0002335
54.1,556.594,0.0240000,0.1690000,-0.0004097
54.15,557.094,0.0240000,0.1680000,-0.0003500
54.2,557.594,0.0240000,0.1680000,-0.0003704
54.25,558.094,0.0240000,0.1680000,-0.0002212
54.3,558.594,0.0240000,0.1680000,-0.0000573
54.35,559.094,0.0240000,0.1680000,0.0002934
54.4,559.595,0.0240000,0.1680000,-0.0001891
54.45,560.095,0.0240000,0.1680000,0.0000560
54.5,560.595,0.0240000,0.1680000,0.0001973
54.55,561.095,0.0240000,0.1680000,-0.0001795
54.6,561.595,0.0240000,0.1680000,0.0000533
54.65,562.095,0.0240000,0.1680000,-0.0003455
54.7,562.595,0.0240000,0.1680000,0.0002498
54.75,563.095,0.0240000,0.1680000,0.0002616
54.8,563.595,0.0240000,0.1680000,0.0003017
54.85,564.095,0.0240000,0.1680000,0.0003620
54.9,564.595,0.0240000,0.1680000,-0.0002465
54.95,565.096,0.0240000,0.1680000,-0.0001442
55,565.596,0.0240000,0.1680000,0.0003212
55.05,566.096,0.0240000,0.1680000,-0.0001509
55.1,566.596,0.0240000,0.1680000,-0.0003723
55.15,567.096,0.0240000,0.1680000,-0.0001484
55.2,567.596,0.0240000,0.1680000,-0.0000920
55.25,568.096,0.0240000,0.1680000,-0.0001061
55.3,568.596,0.0240000,0.1680000,-0.0001517
55.35,569.096,0.0240000,0.1680000,-0.0000176
55.4,569.596,0.0240000,0.1680000,-0.0000251
55.45,570.096,0.0240000,0.1680000,-0.0002000
55.5,570.597,0.0240000,0.1680000,0.0000984
55.55,571.097,0.0240000,0.1680000,0.0000957
55.6,571.597,0.0240000,0.1680000,-0.0002266
55.65,572.097,0.0240000,0.1680000,-0.0001650
55.7,572.597,0.0240000,0.1680000,0.0001078
55.75,573.097,0.0240000,0.1680000,0.0000135
55.8,573.597,0.0240000,0.1680000,0.0000058
55.85,574.097,0.0240000,0.1680000,-0.0002667
55.9,574.597,0.0240000,0.1680000,-0.0001577
55.95,575.097,0.0240000,0.1680000,-0.0000002
56,575.597,0.0240000,0.1680000,-0.0000974
56.05,576.098,0.0240000,0.1680000,-0.0000215
56.1,576.598,0.0240000,0.1680000,-0.0005572
56.15,577.098,0.0240000,0.1680000,0.0003943
56.2,577.598,0.0240000,0.1680000,0.0003871
56.25,578.098,0.0240000,0.1680000,0.0003720
56.3,578.598,0.0240000,0.1690000,0.0007484
56.35,579.098,0.0240000,0.1690000,0.0002208
56.4,579.598,0.0240000,0.1690000,-0.0001162
56.45,580.098,0.0240000,0.1680000,-0.0009689
56.5,580.598,0.0240000,0.1680000,-0.0001646
56.55,581.098,0.0240000,0.1680000,0.0002831
56.6,581.598,0.0240000,0.1680000,-0.0003245
56.65,582.099,0.0240000,0.1680000,-0.0002835
56.7,582.599,0.0240000,0.1680000,-0.0000154
56.75,583.099,0.0230000,0.1680000,-0.0001275
56.8,583.599,0.0230000,0.1670000,-0.0001011
56.85,584.099,0.0230000,0.1670000,0.0001654
56.9,584.599,0.0230000,0.1670000,-0.0000783
56.95,585.099,0.0230000,0.1670000,-0.0003477
57,585.599,0.0230000,0.1670000,-0.0003372
57.05,586.099,0.0230000,0.1670000,-0.0002627
57.1,586.599,0.0230000,0.1670000,-0.0003476
57.15,587.099,0.0230000,0.1670000,0.0001239
57.2,587.6,0.0230000,0.1670000,-0.0001780
57.25,588.1,0.0230000,0.1660000,-0.0004628
57.3,588.6,0.0230000,0.1660000,0.0000612
57.35,589.1,0.0230000,0.1660000,-0.0002556
57.4,589.6,0.0230000,0.1660000,-0.0000902
57.44,590,0.0230000,0.1660000,-0.0003041