File: R/rHDPE_App/app/www/Output/TGA/Condensed_Data/Resin7_0__1.csv
0.6500000,30,14.796,100.015,0.0076978
0.7300000,30.5001,14.796,100.018,0.0040133
0.8000000,31.0002,14.796,100.02,0.0042674
0.8600000,31.5003,14.797,100.022,0.0045502
0.9300000,32.0004,14.797,100.023,0.0028774
0.9900000,32.5004,14.797,100.024,0.0025889
1.05,33.0005,14.797,100.025,0.0024340
1.11,33.5006,14.797,100.026,0.0016530
1.16,34.0007,14.797,100.027,0.0005793
1.22,34.5008,14.797,100.027,0.0016157
1.28,35.0009,14.798,100.028,0.0011878
1.33,35.501,14.798,100.029,0.0010760
1.39,36.0011,14.798,100.029,0.0012724
1.44,36.5012,14.798,100.03,0.0007586
1.5,37.0013,14.798,100.03,0.0015097
1.56,37.5013,14.798,100.031,0.0006009
1.61,38.0014,14.798,100.031,0.0006979
1.66,38.5015,14.798,100.031,0.0002481
1.72,39.0016,14.798,100.032,0.0013343
1.77,39.5017,14.798,100.032,0.0011323
1.83,40.0018,14.798,100.032,0.0001962
1.88,40.5019,14.798,100.033,0.0006360
1.93,41.002,14.798,100.033,0.0008785
1.98,41.5021,14.798,100.033,0.0006333
2.04,42.0021,14.798,100.034,0.0009725
2.09,42.5022,14.798,100.034,0.0002913
2.14,43.0023,14.799,100.035,0.0011636
2.2,43.5024,14.799,100.035,0.0005327
2.25,44.0025,14.799,100.035,0.0005800
2.3,44.5026,14.799,100.035,0.0006277
2.36,45.0027,14.799,100.036,0.0005307
2.41,45.5028,14.799,100.036,0.0004334
2.46,46.0029,14.799,100.036,0.0001442
2.51,46.5029,14.799,100.036,0.0008156
2.57,47.003,14.799,100.037,0.0002874
2.62,47.5031,14.799,100.037,-0.0001913
2.67,48.0032,14.799,100.037,-0.0001432
2.72,48.5033,14.799,100.037,0.0000953
2.78,49.0034,14.799,100.037,-0.0002379
2.83,49.5035,14.799,100.037,-0.0002374
2.88,50.0036,14.799,100.036,-0.0005218
2.93,50.5037,14.799,100.036,-0.0003316
2.98,51.0038,14.799,100.036,-0.0001892
3.03,51.5038,14.799,100.036,-0.0008505
3.09,52.0039,14.799,100.035,-0.0009435
3.14,52.504,14.799,100.035,-0.0010367
3.19,53.0041,14.799,100.034,-0.0008003
3.24,53.5042,14.798,100.034,-0.0010815
3.29,54.0043,14.798,100.033,-0.0010336
3.34,54.5044,14.798,100.032,-0.0011724
3.39,55.0045,14.798,100.032,-0.0012183
3.44,55.5046,14.798,100.031,-0.0012171
3.49,56.0046,14.798,100.03,-0.0014034
3.55,56.5047,14.798,100.029,-0.0014014
3.6,57.0048,14.798,100.029,-0.0014938
3.65,57.5049,14.798,100.028,-0.0013522
3.7,58.005,14.797,100.027,-0.0012576
3.75,58.5051,14.797,100.026,-0.0012569
3.8,59.0052,14.797,100.026,-0.0013954
3.85,59.5053,14.797,100.025,-0.0014401
3.9,60.0054,14.797,100.025,-0.0011606
3.95,60.5054,14.797,100.024,-0.0009750
4,61.0055,14.797,100.024,-0.0004176
4.06,61.5056,14.797,100.024,-0.0004171
4.11,62.0057,14.797,100.024,-0.0003707
4.16,62.5058,14.797,100.024,0.0000000
4.21,63.0059,14.797,100.024,-0.0002314
4.26,63.506,14.797,100.024,0.0000925
4.31,64.0061,14.797,100.024,0.0002773
4.36,64.5062,14.797,100.024,0.0000462
4.41,65.0063,14.797,100.024,0.0005544
4.46,65.5063,14.797,100.024,0.0006462
4.51,66.0064,14.797,100.024,0.0011070
4.56,66.5065,14.797,100.025,0.0005993
4.61,67.0066,14.797,100.025,0.0006906
4.66,67.5067,14.797,100.026,0.0003681
4.71,68.0068,14.797,100.026,0.0008273
4.76,68.5069,14.797,100.026,0.0008275
4.81,69.007,14.797,100.027,0.0005530
4.86,69.5071,14.797,100.027,0.0009232
4.91,70.0071,14.798,100.028,0.0008311
4.96,70.5072,14.798,100.028,0.0003691
5.01,71.0073,14.798,100.028,0.0003229
5.06,71.5074,14.798,100.028,0.0004607
5.11,72.0075,14.798,100.028,0.0002302
5.16,72.5076,14.798,100.029,0.0003220
5.21,73.0077,14.798,100.029,0.0002757
5.26,73.5078,14.798,100.029,0.0001837
5.31,74.0079,14.798,100.029,0.0004132
5.36,74.5079,14.798,100.029,0.0002295
5.41,75.008,14.798,100.029,0.0002294
5.46,75.5081,14.798,100.029,0.0003665
5.51,76.0082,14.798,100.03,0.0003662
5.56,76.5083,14.798,100.03,0.0001373
5.61,77.0084,14.798,100.03,0.0002744
5.66,77.5085,14.798,100.03,0.0003659
5.71,78.0086,14.798,100.03,0.0006401
5.76,78.5087,14.798,100.03,0.0002287
5.81,79.0088,14.798,100.031,0.0005033
5.86,79.5088,14.798,100.031,0.0004114
5.91,80.0089,14.798,100.031,0.0000000
5.96,80.509,14.798,100.031,-0.0000914
6.01,81.0091,14.798,100.031,-0.0002287
6.06,81.5092,14.798,100.031,0.0000000
6.11,82.0093,14.798,100.031,0.0000458
6.16,82.5094,14.798,100.031,0.0001375
6.21,83.0095,14.798,100.031,0.0003668
6.26,83.5096,14.798,100.031,0.0000000
6.31,84.0096,14.798,100.031,0.0000916
6.36,84.5097,14.798,100.031,-0.0002290
6.41,85.0098,14.798,100.031,-0.0001831
6.46,85.5099,14.798,100.031,0.0002745
6.51,86.01,14.798,100.031,0.0002743
6.56,86.5101,14.798,100.032,0.0001371
6.61,87.0102,14.798,100.032,0.0001370
6.66,87.5103,14.798,100.032,0.0000914
6.71,88.0104,14.798,100.032,-0.0002285
6.76,88.5104,14.798,100.032,0.0001372
6.81,89.0105,14.798,100.032,-0.0000457
6.86,89.5106,14.798,100.032,-0.0000915
6.91,90.0107,14.798,100.032,0.0004115
6.96,90.5108,14.798,100.032,0.0003198
7.01,91.0109,14.798,100.032,0.0001826
7.06,91.511,14.798,100.032,-0.0001370
7.11,92.0111,14.798,100.032,-0.0000000
7.16,92.5112,14.798,100.032,0.0000000
7.21,93.0113,14.798,100.032,-0.0002288
7.26,93.5113,14.798,100.032,0.0000457
7.31,94.0114,14.798,100.032,0.0000915
7.36,94.5115,14.798,100.032,0.0000915
7.41,95.0116,14.798,100.032,0.0000000
7.46,95.5117,14.798,100.032,0.0000916
7.51,96.0118,14.798,100.032,0.0002289
7.56,96.5119,14.798,100.032,0.0001832
7.61,97.012,14.798,100.032,0.0003205
7.66,97.5121,14.798,100.033,0.0002748
7.71,98.0121,14.798,100.033,0.0003661
7.76,98.5122,14.798,100.033,-0.0002289
7.81,99.0123,14.798,100.033,-0.0003203
7.86,99.5124,14.798,100.033,-0.0002745
7.91,100.013,14.798,100.032,-0.0002745
7.96,100.513,14.798,100.032,-0.0003202
8.01,101.013,14.798,100.032,0.0000000
8.06,101.513,14.798,100.032,-0.0002287
8.11,102.013,14.798,100.032,0.0000000
8.16,102.513,14.798,100.032,-0.0005950
8.21,103.013,14.798,100.032,-0.0001373
8.26,103.513,14.798,100.032,-0.0002746
8.31,104.013,14.798,100.032,-0.0002289
8.36,104.513,14.798,100.032,0.0000000
8.41,105.013,14.798,100.032,-0.0004578
8.46,105.513,14.798,100.032,0.0000000
8.51,106.014,14.798,100.031,-0.0000458
8.56,106.514,14.798,100.031,0.0000000
8.61,107.014,14.798,100.031,-0.0001374
8.66,107.514,14.798,100.031,0.0000000
8.71,108.014,14.798,100.031,-0.0003665
8.76,108.514,14.798,100.031,0.0001832
8.81,109.014,14.798,100.031,0.0000000
8.86,109.514,14.798,100.031,-0.0001833
8.91,110.014,14.798,100.031,-0.0001374
8.96,110.514,14.798,100.031,-0.0002289
9.01,111.014,14.798,100.031,-0.0000915
9.06,111.515,14.798,100.03,-0.0003200
9.11,112.015,14.798,100.03,-0.0003202
9.16,112.515,14.798,100.03,-0.0000915
9.21,113.015,14.798,100.03,-0.0005949
9.26,113.515,14.798,100.03,-0.0004121
9.31,114.015,14.798,100.029,-0.0005038
9.36,114.515,14.798,100.029,-0.0003205
9.41,115.015,14.798,100.029,-0.0000915
9.46,115.515,14.798,100.029,-0.0003659
9.51,116.015,14.798,100.029,-0.0004573
9.56,116.515,14.798,100.029,-0.0004575
9.61,117.016,14.798,100.028,-0.0001831
9.66,117.516,14.798,100.028,-0.0003664
9.71,118.016,14.798,100.028,-0.0005498
9.76,118.516,14.798,100.028,-0.0004125
9.81,119.016,14.798,100.028,0.0000917
9.86,119.516,14.798,100.028,0.0000000
9.91,120.016,14.798,100.028,-0.0000917
9.96,120.516,14.798,100.028,-0.0000917
10.01,121.016,14.798,100.027,-0.0002292
10.06,121.516,14.797,100.027,-0.0003207
10.11,122.016,14.797,100.027,0.0000000
10.16,122.517,14.797,100.027,-0.0002287
10.21,123.017,14.797,100.027,-0.0004574
10.26,123.517,14.797,100.027,0.0000000
10.31,124.017,14.797,100.027,0.0000916
10.36,124.517,14.797,100.027,-0.0002290
10.41,125.017,14.797,100.027,-0.0003662
10.46,125.517,14.797,100.027,-0.0002750
10.52,126.017,14.797,100.026,-0.0004586
10.57,126.517,14.797,100.026,-0.0002296
10.62,127.017,14.797,100.026,-0.0004593
10.67,127.517,14.797,100.026,-0.0000918
10.72,128.018,14.797,100.026,0.0000918
10.77,128.518,14.797,100.026,0.0000000
10.82,129.018,14.797,100.026,0.0002752
10.87,129.518,14.797,100.026,0.0000459
10.92,130.018,14.797,100.026,-0.0001834
10.97,130.518,14.797,100.026,0.0000000
11.02,131.018,14.797,100.026,-0.0001376
11.07,131.518,14.797,100.026,-0.0001375
11.12,132.018,14.797,100.026,-0.0001833
11.17,132.518,14.797,100.026,0.0000000
11.22,133.018,14.797,100.026,0.0000915
11.27,133.518,14.797,100.026,0.0000000
11.32,134.019,14.797,100.026,0.0000457
11.37,134.519,14.797,100.026,-0.0003661
11.42,135.019,14.797,100.026,-0.0007318
11.47,135.519,14.797,100.025,-0.0008239
11.52,136.019,14.797,100.025,-0.0008237
11.57,136.519,14.797,100.025,-0.0008685
11.62,137.019,14.797,100.024,-0.0010505
11.67,137.519,14.797,100.024,-0.0011407
11.72,138.019,14.797,100.023,-0.0013692
11.77,138.519,14.797,100.022,-0.0018694
11.82,139.019,14.797,100.021,-0.0022785
11.87,139.52,14.796,100.02,-0.0023697
11.91,140.02,14.796,100.019,-0.0023226
11.96,140.52,14.796,100.018,-0.0026371
12.01,141.02,14.796,100.016,-0.0029091
12.06,141.52,14.796,100.015,-0.0026813
12.11,142.02,14.795,100.013,-0.0029072
12.16,142.52,14.795,100.012,-0.0027720
12.21,143.02,14.795,100.011,-0.0024561
12.26,143.52,14.795,100.009,-0.0027322
12.31,144.02,14.795,100.008,-0.0020966
12.36,144.52,14.794,100.007,-0.0021896
12.41,145.021,14.794,100.006,-0.0024217
12.46,145.521,14.794,100.005,-0.0024705
12.51,146.021,14.794,100.004,-0.0022900
12.56,146.521,14.794,100.003,-0.0021556
12.61,147.021,14.794,100.002,-0.0019271
12.66,147.521,14.794,100.001,-0.0014709
12.71,148.021,14.793,100,-0.0017949
12.76,148.521,14.793,99.999,-0.0018894
12.81,149.021,14.793,99.998,-0.0016571
12.86,149.521,14.793,99.997,-0.0018811
12.91,150.021,14.793,99.996,-0.0018327
12.96,150.522,14.793,99.995,-0.0016070
13.01,151.022,14.793,99.994,-0.0010573
13.06,151.522,14.793,99.994,-0.0012398
13.12,152.022,14.792,99.993,-0.0024435
13.17,152.522,14.792,99.992,-0.0024924
13.22,153.022,14.792,99.99,-0.0023557
13.27,153.522,14.792,99.989,-0.0022608
13.32,154.022,14.792,99.988,-0.0021669
13.37,154.522,14.791,99.987,-0.0025825
13.42,155.022,14.791,99.986,-0.0022574
13.47,155.522,14.791,99.985,-0.0022099
13.52,156.023,14.791,99.983,-0.0019236
13.57,156.523,14.791,99.982,-0.0017838
13.62,157.023,14.791,99.981,-0.0021958
13.67,157.523,14.791,99.98,-0.0021514
13.72,158.023,14.79,99.979,-0.0019663
13.77,158.523,14.79,99.978,-0.0021481
13.82,159.023,14.79,99.977,-0.0022395
13.87,159.523,14.79,99.976,-0.0024732
13.92,160.023,14.79,99.975,-0.0021964
13.97,160.523,14.79,99.974,-0.0020574
14.02,161.023,14.789,99.973,-0.0019187
14.07,161.523,14.789,99.972,-0.0018285
14.12,162.024,14.789,99.971,-0.0022866
14.17,162.524,14.789,99.969,-0.0025629
14.22,163.024,14.789,99.968,-0.0023803
14.27,163.524,14.789,99.967,-0.0021972
14.32,164.024,14.788,99.966,-0.0023373
14.37,164.524,14.788,99.965,-0.0022471
14.42,165.024,14.788,99.964,-0.0024305
14.47,165.524,14.788,99.962,-0.0020636
14.52,166.024,14.788,99.961,-0.0027077
14.57,166.524,14.788,99.96,-0.0026159
14.62,167.024,14.787,99.959,-0.0021570
14.67,167.525,14.787,99.958,-0.0024764
14.72,168.025,14.787,99.956,-0.0026589
14.77,168.525,14.787,99.955,-0.0025653
14.82,169.025,14.787,99.954,-0.0023825
14.87,169.525,14.786,99.953,-0.0021508
14.92,170.025,14.786,99.952,-0.0025634
14.97,170.525,14.786,99.95,-0.0029304
15.02,171.025,14.786,99.949,-0.0028401
15.07,171.525,14.786,99.948,-0.0027963
15.12,172.025,14.785,99.946,-0.0027528
15.17,172.525,14.785,99.945,-0.0024809
15.22,173.026,14.785,99.943,-0.0026166
15.27,173.526,14.785,99.942,-0.0028881
15.32,174.026,14.785,99.941,-0.0025599
15.37,174.526,14.784,99.939,-0.0029219
15.42,175.026,14.784,99.938,-0.0027409
15.47,175.526,14.784,99.936,-0.0029312
15.52,176.026,14.784,99.935,-0.0026562
15.57,176.526,14.784,99.934,-0.0025681
15.62,177.026,14.783,99.932,-0.0028915
15.67,177.526,14.783,99.931,-0.0029858
15.72,178.026,14.783,99.929,-0.0027523
15.77,178.527,14.783,99.928,-0.0028825
15.82,179.027,14.783,99.926,-0.0029754
15.87,179.527,14.782,99.925,-0.0032539
15.92,180.027,14.782,99.923,-0.0030697
15.97,180.527,14.782,99.922,-0.0027905
16.02,181.027,14.782,99.92,-0.0030220
16.07,181.527,14.781,99.919,-0.0029345
16.12,182.027,14.781,99.917,-0.0030692
16.17,182.527,14.781,99.915,-0.0036680
16.22,183.027,14.781,99.914,-0.0037139
16.27,183.527,14.78,99.912,-0.0035799
16.32,184.028,14.78,99.91,-0.0035311
16.37,184.528,14.78,99.909,-0.0035754
16.42,185.028,14.78,99.907,-0.0034824
16.47,185.528,14.779,99.905,-0.0031158
16.52,186.028,14.779,99.904,-0.0032985
16.57,186.528,14.779,99.902,-0.0032049
16.62,187.028,14.779,99.9,-0.0034347
16.67,187.528,14.778,99.899,-0.0033404
16.72,188.028,14.778,99.897,-0.0033394
16.77,188.528,14.778,99.895,-0.0034382
16.82,189.028,14.778,99.893,-0.0032967
16.87,189.528,14.777,99.892,-0.0034760
16.92,190.029,14.777,99.89,-0.0036139
16.97,190.529,14.777,99.888,-0.0038437
17.02,191.029,14.777,99.886,-0.0033431
17.07,191.529,14.776,99.885,-0.0033434
17.12,192.029,14.776,99.883,-0.0034357
17.17,192.529,14.776,99.881,-0.0036681
17.22,193.029,14.776,99.879,-0.0033967
17.27,193.529,14.775,99.878,-0.0032089
17.32,194.029,14.775,99.876,-0.0036647
17.37,194.529,14.775,99.874,-0.0038973
17.42,195.029,14.774,99.872,-0.0039908
17.47,195.53,14.774,99.87,-0.0039919
17.52,196.03,14.774,99.868,-0.0041762
17.57,196.53,14.774,99.866,-0.0039461
17.62,197.03,14.773,99.864,-0.0038073
17.67,197.53,14.773,99.863,-0.0037553
17.72,198.03,14.773,99.861,-0.0037546
17.77,198.53,14.773,99.859,-0.0034341
17.82,199.03,14.772,99.857,-0.0035305
17.87,199.53,14.772,99.855,-0.0035773
17.92,200.03,14.772,99.853,-0.0035289
17.97,200.53,14.771,99.851,-0.0037580
18.02,201.031,14.771,99.849,-0.0038468
18.07,201.531,14.771,99.847,-0.0041182
18.12,202.031,14.771,99.845,-0.0037958
18.17,202.531,14.77,99.844,-0.0037986
18.22,203.031,14.77,99.842,-0.0038912
18.27,203.531,14.77,99.84,-0.0038919
18.32,204.031,14.769,99.838,-0.0039370
18.37,204.531,14.769,99.836,-0.0039792
18.42,205.031,14.769,99.834,-0.0037037
18.47,205.531,14.769,99.832,-0.0038434
18.52,206.031,14.768,99.83,-0.0040330
18.57,206.532,14.768,99.828,-0.0039905
18.62,207.032,14.768,99.826,-0.0043606
18.67,207.532,14.767,99.824,-0.0038578
18.72,208.032,14.767,99.822,-0.0044557
18.77,208.532,14.767,99.82,-0.0043654
18.82,209.032,14.766,99.818,-0.0042209
18.87,209.532,14.766,99.815,-0.0039828
18.92,210.032,14.766,99.813,-0.0040695
18.97,210.532,14.766,99.811,-0.0039367
19.02,211.032,14.765,99.809,-0.0039901
19.07,211.532,14.765,99.807,-0.0038891
19.12,212.033,14.765,99.805,-0.0042021
19.17,212.533,14.764,99.803,-0.0041636
19.22,213.033,14.764,99.801,-0.0041247
19.27,213.533,14.764,99.799,-0.0045446
19.32,214.033,14.763,99.797,-0.0043159
19.37,214.533,14.763,99.795,-0.0042614
19.42,215.033,14.763,99.793,-0.0041239
19.47,215.533,14.762,99.791,-0.0042125
19.52,216.033,14.762,99.789,-0.0039377
19.57,216.533,14.762,99.786,-0.0044893
19.62,217.033,14.762,99.784,-0.0040751
19.67,217.533,14.761,99.782,-0.0040293
19.72,218.034,14.761,99.78,-0.0039846
19.77,218.534,14.761,99.778,-0.0038927
19.82,219.034,14.76,99.776,-0.0041235
19.87,219.534,14.76,99.774,-0.0042711
19.92,220.034,14.76,99.772,-0.0043131
19.97,220.534,14.759,99.77,-0.0042121
20.02,221.034,14.759,99.767,-0.0041640
20.07,221.534,14.759,99.765,-0.0045809
20.12,222.034,14.758,99.763,-0.0043052
20.17,222.534,14.758,99.761,-0.0042144
20.22,223.034,14.758,99.759,-0.0043099
20.27,223.535,14.757,99.757,-0.0041265
20.32,224.035,14.757,99.755,-0.0043996
20.37,224.535,14.757,99.753,-0.0038944
20.42,225.035,14.757,99.751,-0.0033425
20.47,225.535,14.756,99.749,-0.0043498
20.52,226.035,14.756,99.746,-0.0044872
20.57,226.535,14.756,99.744,-0.0044004
20.62,227.035,14.755,99.742,-0.0042190
20.67,227.535,14.755,99.74,-0.0044037
20.72,228.035,14.755,99.738,-0.0045384
20.77,228.535,14.754,99.735,-0.0045775
20.82,229.036,14.754,99.733,-0.0043419
20.87,229.536,14.754,99.731,-0.0039824
20.92,230.036,14.753,99.729,-0.0045467
20.97,230.536,14.753,99.727,-0.0044089
21.02,231.036,14.753,99.725,-0.0044495
21.07,231.536,14.752,99.723,-0.0046271
21.12,232.036,14.752,99.72,-0.0040740
21.17,232.536,14.752,99.718,-0.0045317
21.22,233.036,14.751,99.716,-0.0048042
21.27,233.536,14.751,99.714,-0.0046682
21.32,234.036,14.751,99.712,-0.0042109
21.37,234.537,14.75,99.709,-0.0041186
21.42,235.037,14.75,99.707,-0.0042574
21.47,235.537,14.75,99.705,-0.0043068
21.52,236.037,14.749,99.703,-0.0040356
21.57,236.537,14.749,99.701,-0.0040348
21.62,237.037,14.749,99.699,-0.0044040
21.68,237.537,14.749,99.696,-0.0042136
21.73,238.037,14.748,99.694,-0.0042563
21.78,238.537,14.748,99.692,-0.0045779
21.83,239.037,14.748,99.69,-0.0039835
21.88,239.537,14.747,99.688,-0.0043474
21.93,240.038,14.747,99.685,-0.0046245
21.98,240.538,14.747,99.683,-0.0045284
22.03,241.038,14.746,99.681,-0.0043936
22.08,241.538,14.746,99.679,-0.0043558
22.13,242.038,14.746,99.677,-0.0045771
22.18,242.538,14.745,99.674,-0.0047161
22.23,243.038,14.745,99.672,-0.0045405
22.28,243.538,14.745,99.67,-0.0041220
22.33,244.038,14.744,99.668,-0.0044896
22.38,244.538,14.744,99.665,-0.0044455
22.43,245.038,14.744,99.663,-0.0041220
22.48,245.538,14.743,99.661,-0.0044892
22.53,246.039,14.743,99.659,-0.0040788
22.58,246.539,14.743,99.657,-0.0042649
22.63,247.039,14.742,99.654,-0.0045379
22.68,247.539,14.742,99.652,-0.0044008
22.73,248.039,14.742,99.65,-0.0045880
22.78,248.539,14.741,99.648,-0.0044434
22.83,249.039,14.741,99.646,-0.0044414
22.88,249.539,14.741,99.643,-0.0043956
22.93,250.039,14.74,99.641,-0.0046292
22.98,250.539,14.74,99.639,-0.0043530
23.03,251.039,14.74,99.637,-0.0043526
23.08,251.54,14.739,99.634,-0.0045354
23.13,252.04,14.739,99.632,-0.0049954
23.18,252.54,14.739,99.63,-0.0045842
23.23,253.04,14.738,99.628,-0.0043996
23.28,253.54,14.738,99.625,-0.0041145
23.33,254.04,14.738,99.623,-0.0043895
23.38,254.54,14.737,99.621,-0.0047105
23.43,255.04,14.737,99.619,-0.0047619
23.48,255.54,14.737,99.616,-0.0043976
23.53,256.04,14.736,99.614,-0.0044414
23.58,256.54,14.736,99.612,-0.0047671
23.63,257.041,14.736,99.61,-0.0050000
23.68,257.541,14.735,99.608,-0.0038991
23.73,258.041,14.735,99.605,-0.0039864
23.78,258.541,14.735,99.603,-0.0044454
23.83,259.041,14.734,99.601,-0.0047663
23.88,259.541,14.734,99.598,-0.0045813
23.93,260.041,14.734,99.596,-0.0046737
23.98,260.541,14.733,99.594,-0.0046686
24.03,261.041,14.733,99.591,-0.0045788
24.08,261.541,14.733,99.589,-0.0046678
24.13,262.041,14.732,99.587,-0.0045771
24.18,262.542,14.732,99.584,-0.0046703
24.23,263.042,14.732,99.582,-0.0048076
24.28,263.542,14.731,99.579,-0.0049478
24.33,264.042,14.731,99.577,-0.0044938
24.38,264.542,14.731,99.575,-0.0050000
24.43,265.042,14.73,99.572,-0.0047680
24.48,265.542,14.73,99.57,-0.0047213
24.53,266.042,14.729,99.567,-0.0048104
24.58,266.542,14.729,99.565,-0.0048993
24.63,267.042,14.729,99.563,-0.0049936
24.68,267.542,14.728,99.56,-0.0047205
24.73,268.043,14.728,99.558,-0.0045363
24.78,268.543,14.728,99.555,-0.0048571
24.83,269.043,14.727,99.553,-0.0050843
24.88,269.543,14.727,99.551,-0.0048094
24.93,270.043,14.727,99.548,-0.0047152
24.98,270.543,14.726,99.546,-0.0044847
25.03,271.043,14.726,99.543,-0.0047989
25.08,271.543,14.726,99.541,-0.0048993
25.13,272.043,14.725,99.539,-0.0046263
25.18,272.543,14.725,99.536,-0.0046678
25.23,273.043,14.724,99.534,-0.0049872
25.28,273.543,14.724,99.531,-0.0047489
25.33,274.044,14.724,99.529,-0.0039740
25.38,274.544,14.723,99.527,-0.0048903
25.43,275.044,14.723,99.524,-0.0049954
25.48,275.544,14.723,99.522,-0.0052265
25.53,276.044,14.722,99.519,-0.0051376
25.58,276.544,14.722,99.517,-0.0050889
25.63,277.044,14.722,99.514,-0.0049541
25.68,277.544,14.721,99.512,-0.0049110
25.73,278.044,14.721,99.509,-0.0053211
25.78,278.544,14.72,99.507,-0.0054547
25.83,279.044,14.72,99.504,-0.0049406
25.88,279.545,14.72,99.502,-0.0051207
25.93,280.045,14.719,99.499,-0.0052598
25.98,280.545,14.719,99.497,-0.0050806
26.03,281.045,14.719,99.494,-0.0054000
26.08,281.545,14.718,99.492,-0.0051235
26.13,282.045,14.718,99.489,-0.0049891
26.18,282.545,14.717,99.486,-0.0052245
26.23,283.045,14.717,99.484,-0.0050843
26.28,283.545,14.717,99.481,-0.0048579
26.33,284.045,14.716,99.479,-0.0049110
26.38,284.545,14.716,99.476,-0.0047585
26.43,285.046,14.716,99.474,-0.0050796
26.48,285.546,14.715,99.471,-0.0049569
26.53,286.046,14.715,99.469,-0.0046661
26.58,286.546,14.714,99.466,-0.0049451
26.63,287.046,14.714,99.464,-0.0048473
26.68,287.546,14.714,99.461,-0.0052131
26.73,288.046,14.713,99.459,-0.0053960
26.78,288.546,14.713,99.456,-0.0052627
26.83,289.046,14.713,99.454,-0.0052694
26.88,289.546,14.712,99.451,-0.0052733
26.93,290.046,14.712,99.448,-0.0051376
26.98,290.547,14.711,99.446,-0.0050917
27.03,291.047,14.711,99.443,-0.0051376
27.08,291.547,14.711,99.441,-0.0050871
27.13,292.047,14.71,99.438,-0.0053542
27.18,292.547,14.71,99.435,-0.0053571
27.23,293.047,14.71,99.433,-0.0049872
27.28,293.547,14.709,99.43,-0.0052608
27.33,294.047,14.709,99.428,-0.0052626
27.38,294.547,14.708,99.425,-0.0048051
27.43,295.047,14.708,99.423,-0.0048103
27.48,295.547,14.708,99.42,-0.0053620
27.53,296.048,14.707,99.417,-0.0051787
27.58,296.548,14.707,99.415,-0.0051011
27.63,297.048,14.706,99.412,-0.0052704
27.68,297.548,14.706,99.409,-0.0051282
27.73,298.048,14.706,99.407,-0.0051253
27.78,298.548,14.705,99.404,-0.0054587
27.83,299.048,14.705,99.402,-0.0044872
27.88,299.548,14.705,99.399,-0.0052198
27.93,300.048,14.704,99.396,-0.0052675
27.98,300.548,14.704,99.394,-0.0049908
28.03,301.048,14.703,99.391,-0.0051264
28.08,301.548,14.703,99.389,-0.0048975
28.13,302.049,14.703,99.386,-0.0050366
28.18,302.549,14.702,99.384,-0.0050889
28.23,303.049,14.702,99.381,-0.0052656
28.28,303.549,14.701,99.378,-0.0055474
28.33,304.049,14.701,99.376,-0.0053640
28.38,304.549,14.701,99.373,-0.0057297
28.43,305.049,14.7,99.37,-0.0056391
28.48,305.549,14.7,99.368,-0.0052752
28.53,306.049,14.699,99.365,-0.0057318
28.58,306.549,14.699,99.362,-0.0054547
28.63,307.049,14.699,99.36,-0.0055810
28.68,307.55,14.698,99.357,-0.0049936
28.73,308.05,14.698,99.354,-0.0051740
28.78,308.55,14.698,99.352,-0.0052559
28.83,309.05,14.697,99.349,-0.0051693
28.88,309.55,14.697,99.346,-0.0058150
28.93,310.05,14.696,99.344,-0.0053143
28.98,310.55,14.696,99.341,-0.0052236
29.03,311.05,14.696,99.338,-0.0045305
29.08,311.55,14.695,99.336,-0.0051645
29.13,312.05,14.695,99.333,-0.0054279
29.18,312.55,14.694,99.331,-0.0053435
29.23,313.051,14.694,99.328,-0.0049836
29.28,313.551,14.694,99.326,-0.0049880
29.33,314.051,14.693,99.323,-0.0052732
29.38,314.551,14.693,99.321,-0.0055505
29.43,315.051,14.693,99.318,-0.0047724
29.48,315.551,14.692,99.315,-0.0053367
29.53,316.051,14.692,99.313,-0.0054148
29.58,316.551,14.691,99.31,-0.0054528
29.63,317.051,14.691,99.308,-0.0055474
29.68,317.551,14.691,99.305,-0.0052226
29.73,318.051,14.69,99.302,-0.0052246
29.78,318.552,14.69,99.299,-0.0054079
29.83,319.052,14.689,99.297,-0.0055454
29.88,319.552,14.689,99.294,-0.0051319
29.93,320.052,14.689,99.291,-0.0049936
29.98,320.552,14.688,99.289,-0.0051683
30.03,321.052,14.688,99.286,-0.0055322
30.08,321.552,14.687,99.283,-0.0054418
30.13,322.052,14.687,99.281,-0.0050293
30.18,322.552,14.687,99.278,-0.0050787
30.23,323.052,14.686,99.275,-0.0053503
30.28,323.552,14.686,99.273,-0.0054935
30.33,324.053,14.685,99.27,-0.0052704
30.38,324.553,14.685,99.267,-0.0052217
30.43,325.053,14.685,99.265,-0.0055963
30.48,325.553,14.684,99.262,-0.0056288
30.53,326.053,14.684,99.259,-0.0055372
30.58,326.553,14.683,99.256,-0.0055505
30.63,327.053,14.683,99.254,-0.0050413
30.68,327.553,14.683,99.251,-0.0059012
30.73,328.053,14.682,99.248,-0.0056673
30.78,328.553,14.682,99.245,-0.0055353
30.83,329.053,14.681,99.243,-0.0053601
30.88,329.553,14.681,99.24,-0.0054537
30.93,330.054,14.681,99.237,-0.0056453
30.98,330.554,14.68,99.234,-0.0054557
31.03,331.054,14.68,99.231,-0.0053152
31.08,331.554,14.679,99.229,-0.0052227
31.13,332.054,14.679,99.226,-0.0054059
31.18,332.554,14.679,99.223,-0.0051807
31.23,333.054,14.678,99.22,-0.0058608
31.28,333.554,14.678,99.218,-0.0060953
31.33,334.054,14.677,99.215,-0.0054985
31.38,334.554,14.677,99.212,-0.0055332
31.43,335.054,14.676,99.209,-0.0055779
31.48,335.555,14.676,99.207,-0.0057130
31.53,336.055,14.676,99.204,-0.0055789
31.58,336.555,14.675,99.201,-0.0058608
31.63,337.055,14.675,99.198,-0.0058748
31.68,337.555,14.674,99.195,-0.0057151
31.73,338.055,14.674,99.193,-0.0057182
31.78,338.555,14.674,99.19,-0.0054458
31.83,339.055,14.673,99.187,-0.0057629
31.88,339.555,14.673,99.184,-0.0057130
31.93,340.055,14.672,99.181,-0.0053930
31.98,340.555,14.672,99.179,-0.0058023
32.03,341.056,14.671,99.176,-0.0056216
32.08,341.556,14.671,99.173,-0.0054875
32.13,342.056,14.671,99.17,-0.0057266
32.18,342.556,14.67,99.167,-0.0055994
32.23,343.056,14.67,99.164,-0.0061581
32.28,343.556,14.669,99.161,-0.0061189
32.33,344.056,14.669,99.158,-0.0061087
32.38,344.556,14.668,99.155,-0.0059666
32.43,345.056,14.668,99.152,-0.0059905
32.48,345.556,14.668,99.149,-0.0060384
32.53,346.056,14.667,99.146,-0.0060841
32.58,346.557,14.667,99.143,-0.0062237
32.63,347.057,14.666,99.14,-0.0054793
32.68,347.557,14.666,99.138,-0.0056288
32.73,348.057,14.665,99.135,-0.0063645
32.78,348.557,14.665,99.132,-0.0060362
32.83,349.057,14.665,99.129,-0.0059382
32.88,349.557,14.664,99.126,-0.0063598
32.93,350.057,14.664,99.123,-0.0065548
32.98,350.557,14.663,99.12,-0.0059131
33.03,351.057,14.663,99.116,-0.0060495
33.08,351.557,14.662,99.113,-0.0068681
33.13,352.058,14.662,99.11,-0.0066320
33.18,352.558,14.661,99.107,-0.0062580
33.23,353.058,14.661,99.104,-0.0057566
33.28,353.558,14.66,99.101,-0.0062672
33.33,354.058,14.66,99.098,-0.0066789
33.38,354.558,14.659,99.094,-0.0069533
33.43,355.058,14.659,99.091,-0.0065898
33.48,355.558,14.658,99.087,-0.0066415
33.53,356.058,14.658,99.084,-0.0071062
33.58,356.558,14.657,99.081,-0.0073745
33.63,357.058,14.657,99.077,-0.0073367
33.68,357.558,14.656,99.074,-0.0068286
33.73,358.059,14.656,99.07,-0.0065693
33.78,358.559,14.655,99.067,-0.0072754
33.83,359.059,14.655,99.063,-0.0074040
33.88,359.559,14.654,99.059,-0.0070333
33.93,360.059,14.654,99.056,-0.0075965
33.98,360.559,14.653,99.052,-0.0076105
34.03,361.059,14.653,99.048,-0.0078683
34.08,361.559,14.652,99.044,-0.0080275
34.13,362.059,14.651,99.04,-0.0074908
34.18,362.559,14.651,99.036,-0.0080231
34.23,363.059,14.65,99.032,-0.0080467
34.28,363.56,14.65,99.028,-0.0085509
34.33,364.06,14.649,99.024,-0.0078198
34.38,364.56,14.649,99.02,-0.0080586
34.43,365.06,14.648,99.016,-0.0094486
34.48,365.56,14.647,99.012,-0.0086837
34.53,366.06,14.647,99.007,-0.0089203
34.58,366.56,14.646,99.003,-0.0094607
34.63,367.06,14.645,98.998,-0.0093658
34.68,367.56,14.645,98.993,-0.0097349
34.73,368.06,14.644,98.989,-0.0096154
34.78,368.56,14.643,98.984,-0.0099872
34.83,369.061,14.642,98.979,-0.0097618
34.88,369.561,14.642,98.974,-0.0098498
34.93,370.061,14.641,98.969,-0.0101246
34.98,370.561,14.64,98.964,-0.0099486
35.03,371.061,14.639,98.959,-0.0103192
35.08,371.561,14.639,98.953,-0.0105827
35.13,372.061,14.638,98.948,-0.0107045
35.18,372.561,14.637,98.943,-0.0106490
35.23,373.061,14.636,98.937,-0.0111477
35.28,373.561,14.635,98.932,-0.0115779
35.33,374.061,14.635,98.926,-0.0117609
35.38,374.562,14.634,98.92,-0.0117717
35.43,375.062,14.633,98.914,-0.0119897
35.48,375.562,14.632,98.908,-0.0124429
35.53,376.062,14.631,98.902,-0.0121840
35.58,376.562,14.63,98.895,-0.0125503
35.63,377.062,14.629,98.889,-0.0129405
35.68,377.562,14.628,98.882,-0.0133028
35.73,378.062,14.627,98.876,-0.0133945
35.78,378.562,14.626,98.869,-0.0141155
35.83,379.062,14.625,98.862,-0.0140742
35.88,379.562,14.624,98.854,-0.0142414
35.93,380.063,14.623,98.847,-0.0148537
35.98,380.563,14.622,98.84,-0.0152512
36.03,381.063,14.621,98.832,-0.0150630
36.08,381.563,14.62,98.824,-0.0156080
36.13,382.063,14.618,98.816,-0.0161275
36.18,382.563,14.617,98.808,-0.0166789
36.23,383.063,14.616,98.799,-0.0174376
36.28,383.563,14.615,98.791,-0.0175875
36.33,384.063,14.613,98.782,-0.0186004
36.38,384.563,14.612,98.773,-0.0181459
36.43,385.063,14.61,98.763,-0.0187019
36.48,385.563,14.609,98.754,-0.0191497
36.53,386.064,14.608,98.744,-0.0199541
36.58,386.564,14.606,98.734,-0.0202196
36.63,387.064,14.605,98.724,-0.0213894
36.68,387.564,14.603,98.713,-0.0210618
36.73,388.064,14.601,98.702,-0.0220883
36.78,388.564,14.6,98.691,-0.0231591
36.83,389.064,14.598,98.679,-0.0237637
36.88,389.564,14.596,98.667,-0.0244182
36.93,390.064,14.594,98.654,-0.0255401
36.98,390.564,14.592,98.641,-0.0261957
37.03,391.064,14.591,98.629,-0.0263686
37.08,391.565,14.589,98.615,-0.0278336
37.13,392.065,14.587,98.601,-0.0282967
37.18,392.565,14.584,98.587,-0.0283987
37.23,393.065,14.582,98.572,-0.0302127
37.28,393.565,14.58,98.557,-0.0301282
37.33,394.065,14.578,98.542,-0.0306673
37.38,394.565,14.575,98.526,-0.0310672
37.43,395.065,14.573,98.511,-0.0326325
37.48,395.565,14.571,98.495,-0.0324176
37.53,396.065,14.568,98.478,-0.0331651
37.58,396.565,14.566,98.461,-0.0341762
37.63,397.066,14.563,98.444,-0.0341575
37.68,397.566,14.561,98.427,-0.0349167
37.73,398.066,14.558,98.409,-0.0358646
37.78,398.566,14.555,98.391,-0.0364011
37.83,399.066,14.553,98.373,-0.0368604
37.88,399.566,14.55,98.354,-0.0377609
37.93,400.066,14.547,98.335,-0.0387466
37.98,400.566,14.544,98.316,-0.0392739
38.03,401.066,14.541,98.296,-0.0405827
38.08,401.566,14.538,98.275,-0.0401738
38.13,402.066,14.535,98.255,-0.0421544
38.18,402.567,14.532,98.233,-0.0427421
38.23,403.067,14.529,98.212,-0.0439912
38.28,403.567,14.526,98.19,-0.0447768
38.33,404.067,14.522,98.167,-0.0453213
38.38,404.567,14.519,98.144,-0.0465084
38.43,405.067,14.515,98.12,-0.0477718
38.48,405.567,14.512,98.096,-0.0487055
38.53,406.067,14.508,98.072,-0.0498623
38.58,406.567,14.504,98.046,-0.0509174
38.63,407.067,14.501,98.02,-0.0522936
38.68,407.567,14.497,97.994,-0.0536205
38.73,408.068,14.493,97.966,-0.0549451
38.78,408.568,14.488,97.939,-0.0568827
38.83,409.068,14.484,97.91,-0.0576994
38.88,409.568,14.48,97.881,-0.0591997
38.93,410.068,14.476,97.851,-0.0609700
38.98,410.568,14.471,97.821,-0.0621688
39.03,411.068,14.466,97.789,-0.0638706
39.08,411.568,14.462,97.757,-0.0657365
39.13,412.068,14.457,97.723,-0.0679238
39.18,412.568,14.452,97.689,-0.0693681
39.23,413.068,14.446,97.654,-0.0711605
39.28,413.568,14.441,97.617,-0.0765817
39.33,414.069,14.435,97.579,-0.0784456
39.38,414.569,14.429,97.538,-0.0897295
39.43,415.069,14.422,97.492,-0.0903108
39.48,415.569,14.416,97.445,-0.0940252
39.53,416.069,14.408,97.397,-0.1006780
39.58,416.569,14.401,97.346,-0.1047380
39.63,417.069,14.393,97.291,-0.1089710
39.68,417.569,14.385,97.237,-0.1150040
39.73,418.069,14.376,97.18,-0.1195870
39.78,418.569,14.368,97.122,-0.1191780
39.83,419.069,14.359,97.061,-0.1213260
39.88,419.57,14.35,96.999,-0.1226940
39.93,420.07,14.34,96.934,-0.1238570
39.98,420.57,14.33,96.87,-0.1323410
40.03,421.07,14.32,96.802,-0.1404600
40.08,421.57,14.31,96.731,-0.1460730
40.13,422.07,14.299,96.659,-0.1440490
40.18,422.57,14.288,96.584,-0.1507270
40.23,423.07,14.277,96.506,-0.1598990
40.28,423.57,14.264,96.423,-0.1636140
40.33,424.07,14.252,96.342,-0.1638530
40.38,424.57,14.24,96.258,-0.1717910
40.43,425.071,14.227,96.171,-0.1912300
40.48,425.571,14.213,96.074,-0.2005920
40.53,426.071,14.198,95.974,-0.2080750
40.58,426.571,14.182,95.87,-0.2107740
40.63,427.071,14.167,95.766,-0.2056470
40.68,427.571,14.152,95.662,-0.2163030
40.73,428.071,14.135,95.551,-0.2260400
40.78,428.571,14.118,95.437,-0.2292390
40.83,429.071,14.101,95.319,-0.2373460
40.88,429.571,14.083,95.196,-0.2482130
40.93,430.071,14.064,95.069,-0.2449600
40.98,430.572,14.045,94.942,-0.2560840
41.03,431.072,14.026,94.809,-0.2724060
41.08,431.572,14.005,94.67,-0.2860020
41.13,432.072,13.984,94.528,-0.2848580
41.18,432.572,13.962,94.382,-0.2969750
41.23,433.072,13.94,94.23,-0.3123170
41.28,433.572,13.916,94.071,-0.3170260
41.33,434.072,13.892,93.906,-0.3351060
41.38,434.572,13.866,93.728,-0.3679120
41.43,435.072,13.839,93.55,-0.3431250
41.48,435.572,13.813,93.376,-0.3717290
41.53,436.073,13.786,93.189,-0.3960660
41.58,436.573,13.756,92.988,-0.4104670
41.63,437.073,13.725,92.777,-0.4297070
41.68,437.573,13.692,92.552,-0.4594380
41.73,438.073,13.656,92.314,-0.5067310
41.78,438.573,13.62,92.068,-0.4998150
41.83,439.073,13.582,91.81,-0.5326150
41.88,439.573,13.541,91.534,-0.5495610
41.93,440.073,13.495,91.226,-0.6292780
41.98,440.573,13.446,90.893,-0.6768250
42.03,441.073,13.396,90.553,-0.6901660
42.08,441.573,13.346,90.219,-0.6867220
42.13,442.074,13.295,89.87,-0.7104430
42.18,442.574,13.241,89.503,-0.7421820
42.23,443.074,13.184,89.121,-0.7850380
42.28,443.574,13.126,88.732,-0.7966810
42.33,444.074,13.067,88.331,-0.8451830
42.38,444.574,13.004,87.906,-0.8585110
42.43,445.074,12.939,87.465,-0.8715370
42.48,445.574,12.873,87.017,-0.8983940
42.53,446.074,12.805,86.56,-0.9513720
42.58,446.574,12.733,86.071,-1.00137
42.63,447.074,12.654,85.536,-1.05011
42.68,447.575,12.573,84.992,-1.09311
42.73,448.075,12.492,84.445,-1.05603
42.78,448.575,12.413,83.907,-1.14592
42.83,449.075,12.325,83.316,-1.20505
42.88,449.575,12.233,82.693,-1.28922
42.93,450.075,12.139,82.055,-1.24466
42.98,450.575,12.044,81.411,-1.30981
43.03,451.075,11.94,80.71,-1.44402
43.08,451.575,11.833,79.988,-1.42771
43.13,452.075,11.726,79.267,-1.51549
43.18,452.575,11.607,78.464,-1.66999
43.23,453.076,11.489,77.662,-1.52064
43.28,453.576,11.372,76.875,-1.72149
43.33,454.076,11.245,76.01,-1.78673
43.38,454.576,11.112,75.111,-1.74165
43.43,455.076,10.979,74.216,-1.85234
43.48,455.576,10.84,73.274,-1.87713
43.53,456.076,10.692,72.274,-2.0915
43.58,456.576,10.537,71.226,-2.07315
43.63,457.076,10.386,70.208,-2.07927
43.68,457.576,10.224,69.113,-2.19471
43.73,458.076,10.058,67.987,-2.32431
43.78,458.577,9.879,66.776,-2.46158
43.83,459.077,9.708,65.622,-2.3231
43.88,459.577,9.526,64.393,-2.48572
43.93,460.077,9.336,63.108,-2.64099
43.98,460.577,9.145,61.819,-2.69567
44.04,461.077,8.935,60.399,-2.64597
44.09,461.577,8.73,59.01,-2.84732
44.14,462.077,8.517,57.574,-2.94707
44.19,462.577,8.295,56.075,-3.11961
44.24,463.077,8.069,54.546,-3.02914
44.29,463.577,7.835,52.961,-3.224
44.34,464.078,7.598,51.358,-3.3038
44.39,464.578,7.357,49.732,-3.21591
44.44,465.078,7.105,48.028,-3.44282
44.49,465.578,6.848,46.293,-3.48047
44.54,466.078,6.587,44.524,-3.65046
44.59,466.578,6.325,42.757,-3.62921
44.64,467.078,6.053,40.915,-3.64672
44.69,467.578,5.78,39.068,-3.73826
44.74,468.078,5.501,37.187,-3.67906
44.79,468.578,5.223,35.309,-3.77702
44.84,469.078,4.937,33.376,-3.87358
44.88,469.578,4.662,31.512,-3.84263
44.93,470.079,4.373,29.562,-3.82279
44.98,470.579,4.09,27.646,-3.87233
45.03,471.079,3.804,25.711,-3.9343
45.08,471.579,3.524,23.818,-3.70892
45.13,472.079,3.259,22.032,-3.61672
45.18,472.579,3.003,20.301,-3.42258
45.23,473.079,2.751,18.594,-3.47798
45.28,473.579,2.493,16.851,-3.469
45.33,474.079,2.239,15.133,-3.41069
45.38,474.579,2.002,13.535,-3.13279
45.43,475.079,1.775,12.002,-3.00896
45.48,475.58,1.558,10.531,-2.81682
45.53,476.08,1.369,9.255,-2.46098
45.58,476.58,1.194,8.069,-2.39273
45.63,477.08,1.02,6.898,-2.2434
45.68,477.58,0.8590000,5.808,-2.03895
45.73,478.08,0.7140000,4.823,-1.86466
45.78,478.58,0.5840000,3.946,-1.61676
45.83,479.08,0.4760000,3.214,-1.41412
45.88,479.58,0.3780000,2.556,-1.20577
45.93,480.08,0.2960000,1.998,-1.01036
45.98,480.58,0.2280000,1.541,-0.8071630
46.03,481.081,0.1750000,1.186,-0.6576800
46.08,481.581,0.1330000,0.8990000,-0.5134670
46.13,482.081,0.1010000,0.6810000,-0.3788200
46.18,482.581,0.0770000,0.5190000,-0.2754770
46.23,483.081,0.0600000,0.4050000,-0.1891180
46.28,483.581,0.0490000,0.3300000,-0.1170220
46.33,484.081,0.0420000,0.2850000,-0.0708246
46.38,484.581,0.0380000,0.2580000,-0.0365097
46.43,485.081,0.0360000,0.2410000,-0.0359898
46.48,485.581,0.0330000,0.2230000,-0.0334386
46.53,486.081,0.0310000,0.2070000,-0.0288738
46.58,486.582,0.0290000,0.1940000,-0.0236821
46.63,487.082,0.0270000,0.1830000,-0.0194285
46.68,487.582,0.0260000,0.1750000,-0.0156991
46.73,488.082,0.0250000,0.1680000,-0.0123992
46.78,488.582,0.0240000,0.1620000,-0.0100084
46.83,489.082,0.0230000,0.1580000,-0.0075896
46.88,489.582,0.0230000,0.1540000,-0.0059778
46.93,490.082,0.0220000,0.1510000,-0.0048047
46.98,490.582,0.0220000,0.1490000,-0.0041505
47.03,491.082,0.0220000,0.1470000,-0.0031947
47.08,491.582,0.0220000,0.1460000,-0.0025568
47.13,492.083,0.0210000,0.1450000,-0.0019637
47.18,492.583,0.0210000,0.1440000,-0.0015012
47.23,493.083,0.0210000,0.1430000,-0.0015638
47.28,493.583,0.0210000,0.1420000,-0.0015492
47.33,494.083,0.0210000,0.1410000,-0.0012809
47.38,494.583,0.0210000,0.1410000,-0.0011425
47.43,495.083,0.0210000,0.1400000,-0.0008696
47.48,495.583,0.0210000,0.1400000,-0.0008149
47.53,496.083,0.0210000,0.1390000,-0.0008159
47.58,496.583,0.0210000,0.1390000,-0.0006710
47.63,497.083,0.0210000,0.1390000,-0.0004921
47.68,497.583,0.0200000,0.1380000,-0.0007322
47.73,498.084,0.0200000,0.1380000,-0.0008190
47.78,498.584,0.0200000,0.1370000,-0.0007490
47.83,499.084,0.0200000,0.1370000,-0.0005299
47.88,499.584,0.0200000,0.1370000,-0.0004315
47.93,500.084,0.0200000,0.1360000,-0.0006381
47.98,500.584,0.0200000,0.1360000,-0.0005102
48.03,501.084,0.0200000,0.1360000,-0.0003041
48.08,501.584,0.0200000,0.1350000,-0.0005794
48.13,502.084,0.0200000,0.1350000,-0.0004395
48.18,502.584,0.0200000,0.1350000,-0.0006806
48.23,503.084,0.0200000,0.1350000,-0.0008339
48.28,503.585,0.0200000,0.1340000,-0.0006866
48.33,504.085,0.0200000,0.1340000,-0.0009509
48.38,504.585,0.0200000,0.1340000,-0.0004058
48.43,505.085,0.0200000,0.1330000,-0.0002219
48.48,505.585,0.0200000,0.1330000,-0.0005737
48.53,506.085,0.0200000,0.1330000,-0.0010750
48.58,506.585,0.0200000,0.1320000,-0.0009487
48.63,507.085,0.0200000,0.1320000,-0.0006781
48.68,507.585,0.0190000,0.1320000,-0.0003973
48.73,508.085,0.0190000,0.1310000,-0.0006288
48.78,508.585,0.0190000,0.1310000,-0.0006375
48.83,509.086,0.0190000,0.1300000,-0.0001348
48.88,509.586,0.0190000,0.1300000,-0.0005700
48.93,510.086,0.0190000,0.1300000,-0.0009261
48.98,510.586,0.0190000,0.1300000,-0.0007065
49.03,511.086,0.0190000,0.1290000,-0.0007413
49.08,511.586,0.0190000,0.1290000,-0.0012818
49.13,512.086,0.0190000,0.1280000,-0.0010039
49.18,512.586,0.0190000,0.1280000,-0.0008252
49.23,513.086,0.0190000,0.1270000,-0.0008885
49.28,513.586,0.0190000,0.1270000,-0.0010542
49.33,514.086,0.0190000,0.1270000,-0.0004446
49.38,514.587,0.0190000,0.1260000,-0.0005820
49.43,515.087,0.0190000,0.1260000,-0.0008091
49.48,515.587,0.0190000,0.1250000,-0.0007147
49.53,516.087,0.0190000,0.1250000,-0.0009173
49.58,516.587,0.0180000,0.1250000,-0.0009950
49.63,517.087,0.0180000,0.1240000,-0.0008658
49.68,517.587,0.0180000,0.1240000,-0.0009546
49.73,518.087,0.0180000,0.1230000,-0.0006605
49.78,518.587,0.0180000,0.1230000,-0.0008554
49.83,519.087,0.0180000,0.1220000,-0.0008102
49.88,519.587,0.0180000,0.1220000,-0.0009400
49.93,520.088,0.0180000,0.1220000,-0.0007705
49.98,520.588,0.0180000,0.1210000,-0.0007380
50.03,521.088,0.0180000,0.1210000,-0.0009237
50.08,521.588,0.0180000,0.1200000,-0.0008032
50.13,522.088,0.0180000,0.1200000,-0.0011349
50.18,522.588,0.0180000,0.1200000,-0.0009074
50.23,523.088,0.0180000,0.1190000,-0.0007042
50.28,523.588,0.0180000,0.1190000,-0.0005605
50.33,524.088,0.0170000,0.1180000,-0.0008846
50.38,524.588,0.0170000,0.1180000,-0.0011634
50.43,525.088,0.0170000,0.1170000,-0.0005602
50.48,525.588,0.0170000,0.1170000,-0.0002995
50.53,526.089,0.0170000,0.1170000,-0.0008615
50.58,526.589,0.0170000,0.1160000,-0.0007195
50.63,527.089,0.0170000,0.1160000,-0.0011381
50.68,527.589,0.0170000,0.1150000,-0.0010769
50.73,528.089,0.0170000,0.1150000,-0.0008144
50.78,528.589,0.0170000,0.1140000,-0.0010778
50.83,529.089,0.0170000,0.1140000,-0.0009219
50.88,529.589,0.0170000,0.1140000,-0.0010658
50.93,530.089,0.0170000,0.1130000,-0.0009144
50.98,530.589,0.0170000,0.1130000,-0.0007780
51.03,531.089,0.0170000,0.1120000,-0.0009546
51.08,531.59,0.0170000,0.1120000,-0.0011087
51.13,532.09,0.0160000,0.1110000,-0.0007352
51.18,532.59,0.0160000,0.1110000,-0.0007562
51.23,533.09,0.0160000,0.1110000,-0.0005986
51.28,533.59,0.0160000,0.1100000,-0.0005943
51.33,534.09,0.0160000,0.1100000,-0.0008067
51.38,534.59,0.0160000,0.1100000,-0.0005251
51.43,535.09,0.0160000,0.1090000,-0.0008404
51.48,535.59,0.0160000,0.1090000,-0.0009044
51.53,536.09,0.0160000,0.1090000,-0.0007183
51.58,536.59,0.0160000,0.1080000,-0.0004815
51.63,537.091,0.0160000,0.1080000,-0.0008401
51.68,537.591,0.0160000,0.1080000,-0.0007089
51.73,538.091,0.0160000,0.1070000,-0.0006776
51.78,538.591,0.0160000,0.1070000,-0.0009337
51.83,539.091,0.0160000,0.1070000,-0.0007314
51.88,539.591,0.0160000,0.1060000,-0.0006522
51.93,540.091,0.0160000,0.1060000,-0.0005995
51.98,540.591,0.0160000,0.1060000,-0.0008297
52.03,541.091,0.0160000,0.1050000,-0.0008482
52.08,541.591,0.0160000,0.1050000,-0.0009210
52.13,542.091,0.0150000,0.1040000,-0.0007691
52.18,542.592,0.0150000,0.1040000,-0.0007400
52.23,543.092,0.0150000,0.1040000,-0.0006738
52.28,543.592,0.0150000,0.1030000,-0.0005235
52.33,544.092,0.0150000,0.1030000,-0.0008124
52.38,544.592,0.0150000,0.1030000,-0.0008216
52.43,545.092,0.0150000,0.1020000,-0.0008972
52.48,545.592,0.0150000,0.1020000,-0.0009894
52.53,546.092,0.0150000,0.1010000,-0.0007082
52.58,546.592,0.0150000,0.1010000,-0.0007565
52.63,547.092,0.0150000,0.1010000,-0.0007505
52.68,547.592,0.0150000,0.1000000,-0.0007191
52.73,548.093,0.0150000,0.1000000,-0.0006742
52.78,548.593,0.0150000,0.1000000,-0.0010732
52.83,549.093,0.0150000,0.0990000,-0.0006451
52.88,549.593,0.0150000,0.0990000,-0.0004950
52.93,550.093,0.0150000,0.0980000,-0.0008225
52.98,550.593,0.0150000,0.0980000,-0.0007425
53.03,551.093,0.0140000,0.0980000,-0.0007305
53.08,551.593,0.0140000,0.0970000,-0.0000274
53.13,552.093,0.0140000,0.0970000,-0.0003838
53.18,552.593,0.0140000,0.0970000,-0.0003899
53.23,553.093,0.0140000,0.0970000,-0.0007493
53.28,553.593,0.0140000,0.0960000,-0.0008435
53.33,554.094,0.0140000,0.0960000,-0.0006200
53.38,554.594,0.0140000,0.0960000,-0.0008122
53.43,555.094,0.0140000,0.0950000,-0.0006158
53.48,555.594,0.0140000,0.0950000,-0.0005835
53.53,556.094,0.0140000,0.0950000,-0.0007758
53.58,556.594,0.0140000,0.0940000,-0.0006568
53.63,557.094,0.0140000,0.0940000,-0.0007880
53.68,557.594,0.0140000,0.0930000,-0.0004768
53.73,558.094,0.0140000,0.0930000,-0.0006215
53.78,558.594,0.0140000,0.0930000,-0.0004469
53.83,559.094,0.0140000,0.0920000,-0.0008201
53.88,559.595,0.0140000,0.0920000,-0.0006197
53.93,560.095,0.0140000,0.0920000,-0.0003701
53.98,560.595,0.0140000,0.0910000,-0.0005739
54.03,561.095,0.0130000,0.0910000,-0.0007114
54.08,561.595,0.0130000,0.0910000,-0.0003488
54.13,562.095,0.0130000,0.0910000,-0.0004289
54.18,562.595,0.0130000,0.0900000,-0.0001084
54.23,563.095,0.0130000,0.0900000,-0.0003342
54.28,563.595,0.0130000,0.0900000,-0.0008645
54.33,564.095,0.0130000,0.0900000,-0.0007467
54.38,564.595,0.0130000,0.0890000,-0.0004368
54.43,565.096,0.0130000,0.0890000,-0.0007343
54.48,565.596,0.0130000,0.0890000,-0.0004459
54.53,566.096,0.0130000,0.0880000,-0.0008072
54.58,566.596,0.0130000,0.0880000,-0.0005410
54.63,567.096,0.0130000,0.0880000,-0.0007705
54.68,567.596,0.0130000,0.0880000,-0.0006566
54.73,568.096,0.0130000,0.0870000,-0.0005438
54.78,568.596,0.0130000,0.0870000,-0.0006996
54.83,569.096,0.0130000,0.0870000,-0.0002818
54.88,569.596,0.0130000,0.0870000,-0.0006663
54.93,570.096,0.0130000,0.0860000,-0.0004165
54.98,570.597,0.0130000,0.0860000,-0.0004761
55.03,571.097,0.0130000,0.0860000,-0.0006120
55.08,571.597,0.0130000,0.0850000,-0.0005589
55.13,572.097,0.0130000,0.0850000,-0.0006837
55.18,572.597,0.0130000,0.0850000,-0.0003752
55.23,573.097,0.0120000,0.0840000,-0.0005973
55.28,573.597,0.0120000,0.0840000,-0.0002903
55.33,574.097,0.0120000,0.0840000,-0.0005271
55.38,574.597,0.0120000,0.0830000,-0.0003811
55.43,575.097,0.0120000,0.0830000,-0.0005162
55.48,575.597,0.0120000,0.0830000,-0.0007289
55.53,576.098,0.0120000,0.0820000,-0.0009356
55.58,576.598,0.0120000,0.0820000,-0.0008739
55.63,577.098,0.0120000,0.0820000,-0.0006604
55.68,577.598,0.0120000,0.0810000,-0.0004260
55.73,578.098,0.0120000,0.0810000,-0.0004759
55.78,578.598,0.0120000,0.0810000,-0.0008153
55.83,579.098,0.0120000,0.0810000,-0.0004602
55.88,579.598,0.0120000,0.0800000,-0.0005584
55.93,580.098,0.0120000,0.0800000,-0.0006770
55.98,580.598,0.0120000,0.0800000,-0.0006049
56.03,581.098,0.0120000,0.0790000,-0.0005781
56.08,581.598,0.0120000,0.0790000,-0.0005700
56.13,582.099,0.0120000,0.0790000,-0.0003210
56.18,582.599,0.0120000,0.0780000,-0.0007458
56.23,583.099,0.0120000,0.0780000,-0.0005520
56.28,583.599,0.0110000,0.0780000,-0.0005776
56.33,584.099,0.0110000,0.0770000,-0.0005432
56.38,584.599,0.0110000,0.0770000,-0.0004245
56.43,585.099,0.0110000,0.0770000,-0.0006031
56.48,585.599,0.0110000,0.0760000,-0.0009165
56.53,586.099,0.0110000,0.0760000,-0.0004722
56.58,586.599,0.0110000,0.0750000,-0.0009070
56.63,587.099,0.0110000,0.0750000,-0.0007747
56.68,587.6,0.0110000,0.0750000,-0.0007897
56.73,588.1,0.0110000,0.0740000,-0.0007144
56.78,588.6,0.0110000,0.0740000,-0.0006590
56.83,589.1,0.0110000,0.0740000,-0.0008448
56.88,589.6,0.0110000,0.0730000,-0.0008113
56.92,590,0.0110000,0.0730000,-0.0006178