File: R/rHDPE_App/app/www/Output/TGA/Condensed_Data/Resin10_1_.csv
0.5800000,30,9.972,100.013
0.6400000,30.4001,9.972,100.017
0.7000000,30.8001,9.973,100.019
0.7600000,31.2002,9.973,100.022
0.8100000,31.6003,9.973,100.024
0.8700000,32.0004,9.973,100.027
0.9200000,32.4004,9.974,100.029
0.9700000,32.8005,9.974,100.031
1.02,33.2006,9.974,100.033
1.07,33.6006,9.974,100.035
1.11,34.0007,9.974,100.037
1.16,34.4008,9.974,100.039
1.21,34.8009,9.975,100.04
1.26,35.2009,9.975,100.042
1.3,35.601,9.975,100.043
1.35,36.0011,9.975,100.045
1.39,36.4011,9.975,100.046
1.44,36.8012,9.975,100.047
1.48,37.2013,9.975,100.049
1.53,37.6014,9.976,100.05
1.57,38.0014,9.976,100.051
1.61,38.4015,9.976,100.052
1.66,38.8016,9.976,100.053
1.7,39.2016,9.976,100.054
1.74,39.6017,9.976,100.055
1.79,40.0018,9.976,100.056
1.83,40.4019,9.976,100.057
1.87,40.8019,9.976,100.058
1.92,41.202,9.976,100.059
1.96,41.6021,9.977,100.06
2,42.0021,9.977,100.06
2.04,42.4022,9.977,100.061
2.08,42.8023,9.977,100.062
2.13,43.2024,9.977,100.063
2.17,43.6024,9.977,100.064
2.21,44.0025,9.977,100.065
2.25,44.4026,9.977,100.065
2.29,44.8026,9.977,100.066
2.34,45.2027,9.977,100.067
2.38,45.6028,9.977,100.068
2.42,46.0029,9.977,100.069
2.46,46.4029,9.978,100.069
2.5,46.803,9.978,100.07
2.54,47.2031,9.978,100.071
2.59,47.6031,9.978,100.071
2.63,48.0032,9.978,100.072
2.67,48.4033,9.978,100.073
2.71,48.8034,9.978,100.074
2.75,49.2034,9.978,100.075
2.79,49.6035,9.978,100.075
2.84,50.0036,9.978,100.076
2.88,50.4036,9.978,100.077
2.92,50.8037,9.978,100.077
2.96,51.2038,9.978,100.078
3,51.6039,9.978,100.079
3.04,52.0039,9.979,100.08
3.08,52.404,9.979,100.081
3.12,52.8041,9.979,100.081
3.16,53.2041,9.979,100.082
3.21,53.6042,9.979,100.083
3.24,54.0043,9.979,100.084
3.29,54.4044,9.979,100.084
3.33,54.8044,9.979,100.085
3.37,55.2045,9.979,100.086
3.41,55.6046,9.979,100.087
3.45,56.0046,9.979,100.088
3.49,56.4047,9.979,100.089
3.53,56.8048,9.98,100.089
3.57,57.2049,9.98,100.09
3.61,57.6049,9.98,100.091
3.65,58.005,9.98,100.092
3.69,58.4051,9.98,100.093
3.74,58.8051,9.98,100.093
3.78,59.2052,9.98,100.094
3.82,59.6053,9.98,100.095
3.86,60.0054,9.98,100.095
3.9,60.4054,9.98,100.096
3.94,60.8055,9.98,100.097
3.98,61.2056,9.98,100.098
4.02,61.6056,9.98,100.098
4.06,62.0057,9.98,100.099
4.1,62.4058,9.981,100.099
4.14,62.8059,9.981,100.1
4.18,63.2059,9.981,100.101
4.22,63.606,9.981,100.102
4.26,64.0061,9.981,100.103
4.3,64.4061,9.981,100.103
4.34,64.8062,9.981,100.104
4.38,65.2063,9.981,100.104
4.42,65.6064,9.981,100.105
4.46,66.0064,9.981,100.106
4.5,66.4065,9.981,100.107
4.55,66.8066,9.981,100.108
4.59,67.2066,9.981,100.108
4.63,67.6067,9.981,100.109
4.66,68.0068,9.982,100.109
4.7,68.4069,9.982,100.11
4.75,68.8069,9.982,100.11
4.79,69.207,9.982,100.111
4.83,69.6071,9.982,100.112
4.87,70.0071,9.982,100.113
4.91,70.4072,9.982,100.113
4.95,70.8073,9.982,100.114
4.99,71.2074,9.982,100.114
5.03,71.6074,9.982,100.115
5.07,72.0075,9.982,100.116
5.11,72.4076,9.982,100.117
5.15,72.8076,9.982,100.118
5.19,73.2077,9.982,100.119
5.23,73.6078,9.983,100.12
5.27,74.0079,9.983,100.12
5.31,74.4079,9.983,100.121
5.35,74.808,9.983,100.121
5.39,75.2081,9.983,100.121
5.43,75.6081,9.983,100.122
5.47,76.0082,9.983,100.122
5.51,76.4083,9.983,100.123
5.55,76.8084,9.983,100.123
5.59,77.2084,9.983,100.124
5.63,77.6085,9.983,100.125
5.67,78.0086,9.983,100.125
5.71,78.4086,9.983,100.126
5.75,78.8087,9.983,100.126
5.79,79.2088,9.983,100.127
5.83,79.6089,9.983,100.127
5.87,80.0089,9.983,100.128
5.91,80.409,9.983,100.128
5.95,80.8091,9.983,100.129
5.99,81.2091,9.983,100.129
6.03,81.6092,9.984,100.129
6.07,82.0093,9.984,100.13
6.11,82.4094,9.984,100.13
6.15,82.8094,9.984,100.131
6.19,83.2095,9.984,100.132
6.23,83.6096,9.984,100.132
6.27,84.0096,9.984,100.133
6.31,84.4097,9.984,100.133
6.35,84.8098,9.984,100.134
6.39,85.2099,9.984,100.134
6.43,85.6099,9.984,100.135
6.47,86.01,9.984,100.135
6.51,86.4101,9.984,100.136
6.55,86.8101,9.984,100.136
6.59,87.2102,9.984,100.136
6.63,87.6103,9.984,100.137
6.67,88.0104,9.984,100.137
6.71,88.4104,9.984,100.138
6.75,88.8105,9.984,100.138
6.79,89.2106,9.984,100.138
6.83,89.6106,9.984,100.139
6.87,90.0107,9.984,100.139
6.91,90.4108,9.985,100.14
6.95,90.8109,9.985,100.14
6.99,91.2109,9.985,100.14
7.03,91.611,9.985,100.141
7.07,92.0111,9.985,100.141
7.11,92.4111,9.985,100.142
7.15,92.8112,9.985,100.142
7.19,93.2113,9.985,100.143
7.23,93.6114,9.985,100.143
7.27,94.0114,9.985,100.143
7.31,94.4115,9.985,100.144
7.35,94.8116,9.985,100.144
7.39,95.2116,9.985,100.145
7.43,95.6117,9.985,100.145
7.47,96.0118,9.985,100.145
7.51,96.4119,9.985,100.146
7.55,96.8119,9.985,100.146
7.59,97.212,9.985,100.146
7.63,97.6121,9.985,100.146
7.67,98.0121,9.985,100.147
7.71,98.4122,9.985,100.147
7.75,98.8123,9.985,100.148
7.79,99.2124,9.985,100.148
7.83,99.6124,9.985,100.148
7.87,100.013,9.985,100.149
7.91,100.413,9.985,100.149
7.95,100.813,9.985,100.149
7.99,101.213,9.986,100.149
8.03,101.613,9.986,100.15
8.07,102.013,9.986,100.15
8.11,102.413,9.986,100.15
8.15,102.813,9.986,100.151
8.19,103.213,9.986,100.151
8.23,103.613,9.986,100.151
8.27,104.013,9.986,100.152
8.31,104.413,9.986,100.152
8.35,104.813,9.986,100.152
8.39,105.213,9.986,100.152
8.43,105.614,9.986,100.153
8.47,106.014,9.986,100.153
8.51,106.414,9.986,100.153
8.55,106.814,9.986,100.153
8.59,107.214,9.986,100.153
8.63,107.614,9.986,100.153
8.67,108.014,9.986,100.153
8.71,108.414,9.986,100.154
8.75,108.814,9.986,100.154
8.79,109.214,9.986,100.154
8.83,109.614,9.986,100.154
8.87,110.014,9.986,100.154
8.91,110.414,9.986,100.154
8.95,110.814,9.986,100.155
8.99,111.215,9.986,100.155
9.03,111.615,9.986,100.155
9.07,112.015,9.986,100.156
9.11,112.415,9.986,100.156
9.15,112.815,9.986,100.156
9.19,113.215,9.986,100.156
9.23,113.615,9.986,100.157
9.27,114.015,9.986,100.157
9.31,114.415,9.986,100.158
9.35,114.815,9.986,100.157
9.39,115.215,9.986,100.157
9.43,115.615,9.986,100.158
9.47,116.015,9.986,100.158
9.51,116.415,9.986,100.158
9.55,116.816,9.986,100.158
9.59,117.216,9.986,100.158
9.63,117.616,9.986,100.158
9.67,118.016,9.986,100.158
9.71,118.416,9.986,100.158
9.75,118.816,9.986,100.158
9.79,119.216,9.986,100.158
9.83,119.616,9.986,100.158
9.87,120.016,9.986,100.158
9.91,120.416,9.986,100.158
9.95,120.816,9.986,100.158
9.99,121.216,9.986,100.158
10.03,121.616,9.986,100.158
10.07,122.016,9.986,100.158
10.11,122.417,9.986,100.158
10.15,122.817,9.986,100.158
10.19,123.217,9.986,100.158
10.23,123.617,9.986,100.158
10.27,124.017,9.986,100.158
10.31,124.417,9.986,100.158
10.35,124.817,9.986,100.158
10.39,125.217,9.986,100.158
10.43,125.617,9.986,100.158
10.47,126.017,9.986,100.158
10.51,126.417,9.986,100.158
10.55,126.817,9.986,100.158
10.6,127.217,9.986,100.158
10.63,127.617,9.986,100.158
10.68,128.018,9.986,100.158
10.72,128.418,9.986,100.158
10.75,128.818,9.986,100.158
10.8,129.218,9.986,100.158
10.83,129.618,9.986,100.158
10.88,130.018,9.986,100.158
10.92,130.418,9.986,100.158
10.95,130.818,9.986,100.158
11,131.218,9.986,100.158
11.03,131.618,9.986,100.158
11.08,132.018,9.986,100.158
11.12,132.418,9.986,100.158
11.15,132.818,9.986,100.158
11.2,133.218,9.986,100.158
11.23,133.619,9.986,100.158
11.28,134.019,9.986,100.158
11.32,134.419,9.986,100.158
11.35,134.819,9.986,100.158
11.4,135.219,9.986,100.158
11.43,135.619,9.986,100.158
11.48,136.019,9.986,100.158
11.51,136.419,9.986,100.158
11.55,136.819,9.986,100.158
11.59,137.219,9.986,100.158
11.63,137.619,9.986,100.158
11.67,138.019,9.986,100.158
11.71,138.419,9.986,100.158
11.75,138.819,9.986,100.158
11.79,139.22,9.986,100.158
11.83,139.62,9.986,100.158
11.87,140.02,9.986,100.158
11.91,140.42,9.986,100.158
11.95,140.82,9.986,100.158
11.99,141.22,9.986,100.157
12.03,141.62,9.986,100.157
12.08,142.02,9.986,100.158
12.12,142.42,9.986,100.157
12.15,142.82,9.986,100.157
12.2,143.22,9.986,100.158
12.23,143.62,9.986,100.158
12.28,144.02,9.986,100.158
12.32,144.42,9.986,100.158
12.35,144.821,9.986,100.158
12.4,145.221,9.986,100.158
12.44,145.621,9.986,100.158
12.48,146.021,9.986,100.158
12.52,146.421,9.986,100.158
12.56,146.821,9.986,100.158
12.6,147.221,9.986,100.158
12.64,147.621,9.986,100.158
12.68,148.021,9.986,100.157
12.72,148.421,9.986,100.157
12.76,148.821,9.986,100.157
12.8,149.221,9.986,100.157
12.84,149.621,9.986,100.156
12.88,150.021,9.986,100.156
12.92,150.422,9.986,100.155
12.96,150.822,9.986,100.155
13,151.222,9.986,100.154
13.04,151.622,9.986,100.153
13.08,152.022,9.986,100.152
13.12,152.422,9.986,100.152
13.16,152.822,9.986,100.151
13.2,153.222,9.986,100.15
13.24,153.622,9.985,100.149
13.28,154.022,9.985,100.148
13.32,154.422,9.985,100.146
13.36,154.822,9.985,100.145
13.4,155.222,9.985,100.144
13.44,155.622,9.985,100.143
13.48,156.023,9.985,100.142
13.52,156.423,9.985,100.141
13.56,156.823,9.985,100.14
13.6,157.223,9.984,100.139
13.64,157.623,9.984,100.138
13.68,158.023,9.984,100.137
13.72,158.423,9.984,100.136
13.76,158.823,9.984,100.135
13.8,159.223,9.984,100.134
13.84,159.623,9.984,100.133
13.88,160.023,9.984,100.132
13.92,160.423,9.984,100.131
13.96,160.823,9.984,100.131
14,161.223,9.984,100.13
14.04,161.624,9.983,100.129
14.08,162.024,9.983,100.128
14.12,162.424,9.983,100.128
14.16,162.824,9.983,100.127
14.2,163.224,9.983,100.126
14.23,163.624,9.983,100.126
14.28,164.024,9.983,100.125
14.32,164.424,9.983,100.124
14.35,164.824,9.983,100.124
14.4,165.224,9.983,100.123
14.43,165.624,9.983,100.122
14.48,166.024,9.983,100.122
14.52,166.424,9.983,100.121
14.55,166.824,9.983,100.121
14.6,167.225,9.983,100.12
14.63,167.625,9.982,100.119
14.68,168.025,9.982,100.118
14.72,168.425,9.982,100.118
14.75,168.825,9.982,100.117
14.8,169.225,9.982,100.116
14.84,169.625,9.982,100.115
14.88,170.025,9.982,100.115
14.92,170.425,9.982,100.114
14.96,170.825,9.982,100.113
15,171.225,9.982,100.112
15.04,171.625,9.982,100.111
15.08,172.025,9.982,100.111
15.12,172.425,9.982,100.11
15.16,172.826,9.981,100.109
15.2,173.226,9.981,100.108
15.24,173.626,9.981,100.108
15.28,174.026,9.981,100.107
15.32,174.426,9.981,100.106
15.36,174.826,9.981,100.106
15.4,175.226,9.981,100.105
15.44,175.626,9.981,100.104
15.48,176.026,9.981,100.103
15.52,176.426,9.981,100.102
15.56,176.826,9.981,100.102
15.6,177.226,9.981,100.1
15.64,177.626,9.981,100.1
15.68,178.026,9.98,100.099
15.72,178.427,9.98,100.098
15.76,178.827,9.98,100.097
15.8,179.227,9.98,100.096
15.84,179.627,9.98,100.095
15.88,180.027,9.98,100.094
15.92,180.427,9.98,100.093
15.96,180.827,9.98,100.092
16,181.227,9.98,100.091
16.04,181.627,9.98,100.09
16.08,182.027,9.98,100.089
16.12,182.427,9.979,100.088
16.16,182.827,9.979,100.088
16.2,183.227,9.979,100.087
16.24,183.627,9.979,100.086
16.28,184.028,9.979,100.085
16.32,184.428,9.979,100.084
16.36,184.828,9.979,100.083
16.4,185.228,9.979,100.082
16.44,185.628,9.979,100.081
16.48,186.028,9.979,100.08
16.52,186.428,9.978,100.079
16.56,186.828,9.978,100.078
16.6,187.228,9.978,100.077
16.64,187.628,9.978,100.076
16.68,188.028,9.978,100.075
16.72,188.428,9.978,100.074
16.76,188.828,9.978,100.073
16.8,189.228,9.978,100.071
16.84,189.629,9.978,100.07
16.88,190.029,9.977,100.069
16.92,190.429,9.977,100.068
16.96,190.829,9.977,100.067
17,191.229,9.977,100.065
17.04,191.629,9.977,100.064
17.08,192.029,9.977,100.063
17.12,192.429,9.977,100.062
17.16,192.829,9.977,100.061
17.2,193.229,9.977,100.06
17.24,193.629,9.976,100.058
17.28,194.029,9.976,100.057
17.32,194.429,9.976,100.056
17.36,194.829,9.976,100.055
17.4,195.23,9.976,100.054
17.44,195.63,9.976,100.052
17.48,196.03,9.976,100.051
17.52,196.43,9.976,100.05
17.56,196.83,9.975,100.049
17.6,197.23,9.975,100.047
17.64,197.63,9.975,100.046
17.68,198.03,9.975,100.045
17.72,198.43,9.975,100.043
17.76,198.83,9.975,100.042
17.8,199.23,9.975,100.041
17.84,199.63,9.975,100.04
17.88,200.03,9.974,100.039
17.92,200.43,9.974,100.038
17.96,200.831,9.974,100.036
18,201.231,9.974,100.035
18.04,201.631,9.974,100.034
18.08,202.031,9.974,100.033
18.12,202.431,9.974,100.031
18.16,202.831,9.974,100.029
18.19,203.231,9.973,100.028
18.23,203.631,9.973,100.027
18.28,204.031,9.973,100.025
18.32,204.431,9.973,100.024
18.36,204.831,9.973,100.022
18.4,205.231,9.973,100.021
18.44,205.631,9.973,100.02
18.48,206.031,9.972,100.018
18.52,206.432,9.972,100.017
18.56,206.832,9.972,100.016
18.6,207.232,9.972,100.014
18.64,207.632,9.972,100.013
18.68,208.032,9.972,100.012
18.72,208.432,9.972,100.011
18.76,208.832,9.972,100.009
18.8,209.232,9.971,100.008
18.84,209.632,9.971,100.006
18.88,210.032,9.971,100.005
18.92,210.432,9.971,100.003
18.96,210.832,9.971,100.002
19,211.232,9.971,100.001
19.04,211.632,9.971,99.999
19.08,212.033,9.97,99.998
19.12,212.433,9.97,99.996
19.16,212.833,9.97,99.995
19.2,213.233,9.97,99.994
19.24,213.633,9.97,99.992
19.28,214.033,9.97,99.991
19.31,214.433,9.97,99.989
19.35,214.833,9.969,99.988
19.39,215.233,9.969,99.986
19.43,215.633,9.969,99.984
19.47,216.033,9.969,99.983
19.51,216.433,9.969,99.981
19.55,216.833,9.969,99.98
19.59,217.233,9.968,99.979
19.63,217.634,9.968,99.977
19.67,218.034,9.968,99.976
19.72,218.434,9.968,99.974
19.76,218.834,9.968,99.973
19.79,219.234,9.968,99.971
19.84,219.634,9.968,99.97
19.88,220.034,9.967,99.968
19.92,220.434,9.967,99.967
19.96,220.834,9.967,99.966
20,221.234,9.967,99.964
20.04,221.634,9.967,99.963
20.08,222.034,9.967,99.961
20.12,222.434,9.967,99.96
20.16,222.834,9.966,99.958
20.2,223.235,9.966,99.957
20.24,223.635,9.966,99.955
20.28,224.035,9.966,99.953
20.32,224.435,9.966,99.951
20.36,224.835,9.966,99.95
20.4,225.235,9.965,99.948
20.44,225.635,9.965,99.947
20.48,226.035,9.965,99.945
20.52,226.435,9.965,99.943
20.56,226.835,9.965,99.942
20.61,227.235,9.965,99.94
20.64,227.635,9.965,99.939
20.69,228.035,9.964,99.937
20.73,228.435,9.964,99.936
20.77,228.836,9.964,99.934
20.81,229.236,9.964,99.933
20.85,229.636,9.964,99.931
20.89,230.036,9.964,99.93
20.93,230.436,9.963,99.928
20.97,230.836,9.963,99.926
21.01,231.236,9.963,99.925
21.05,231.636,9.963,99.923
21.09,232.036,9.963,99.922
21.13,232.436,9.963,99.92
21.17,232.836,9.963,99.919
21.21,233.236,9.962,99.917
21.25,233.636,9.962,99.916
21.29,234.036,9.962,99.914
21.33,234.437,9.962,99.912
21.37,234.837,9.962,99.911
21.41,235.237,9.962,99.909
21.45,235.637,9.961,99.908
21.49,236.037,9.961,99.906
21.53,236.437,9.961,99.905
21.57,236.837,9.961,99.903
21.61,237.237,9.961,99.901
21.64,237.637,9.961,99.9
21.68,238.037,9.96,99.898
21.72,238.437,9.96,99.897
21.76,238.837,9.96,99.895
21.8,239.237,9.96,99.894
21.84,239.637,9.96,99.892
21.88,240.038,9.96,99.891
21.92,240.438,9.96,99.889
21.96,240.838,9.959,99.887
22,241.238,9.959,99.886
22.04,241.638,9.959,99.885
22.08,242.038,9.959,99.883
22.12,242.438,9.959,99.881
22.16,242.838,9.959,99.88
22.2,243.238,9.958,99.878
22.24,243.638,9.958,99.876
22.28,244.038,9.958,99.875
22.32,244.438,9.958,99.873
22.36,244.838,9.958,99.871
22.4,245.238,9.958,99.87
22.44,245.639,9.957,99.868
22.48,246.039,9.957,99.867
22.52,246.439,9.957,99.865
22.56,246.839,9.957,99.864
22.6,247.239,9.957,99.862
22.64,247.639,9.957,99.861
22.68,248.039,9.957,99.859
22.72,248.439,9.956,99.858
22.76,248.839,9.956,99.856
22.8,249.239,9.956,99.854
22.84,249.639,9.956,99.853
22.88,250.039,9.956,99.851
22.92,250.439,9.956,99.85
22.96,250.839,9.955,99.848
23,251.24,9.955,99.847
23.04,251.64,9.955,99.845
23.08,252.04,9.955,99.844
23.12,252.44,9.955,99.842
23.17,252.84,9.955,99.84
23.21,253.24,9.955,99.839
23.24,253.64,9.954,99.837
23.28,254.04,9.954,99.836
23.33,254.44,9.954,99.835
23.37,254.84,9.954,99.833
23.41,255.24,9.954,99.831
23.44,255.64,9.954,99.83
23.48,256.04,9.953,99.828
23.53,256.44,9.953,99.827
23.57,256.841,9.953,99.825
23.61,257.241,9.953,99.824
23.64,257.641,9.953,99.822
23.68,258.041,9.953,99.821
23.73,258.441,9.953,99.819
23.77,258.841,9.952,99.818
23.81,259.241,9.952,99.816
23.85,259.641,9.952,99.815
23.88,260.041,9.952,99.813
23.93,260.441,9.952,99.812
23.97,260.841,9.952,99.81
24.01,261.241,9.952,99.809
24.05,261.641,9.951,99.807
24.09,262.041,9.951,99.806
24.13,262.442,9.951,99.805
24.17,262.842,9.951,99.803
24.21,263.242,9.951,99.802
24.26,263.642,9.951,99.8
24.3,264.042,9.951,99.799
24.34,264.442,9.95,99.798
24.38,264.842,9.95,99.796
24.42,265.242,9.95,99.795
24.46,265.642,9.95,99.794
24.5,266.042,9.95,99.792
24.54,266.442,9.95,99.791
24.58,266.842,9.95,99.789
24.62,267.242,9.949,99.788
24.66,267.642,9.949,99.787
24.69,268.043,9.949,99.785
24.73,268.443,9.949,99.784
24.77,268.843,9.949,99.782
24.81,269.243,9.949,99.781
24.85,269.643,9.949,99.779
24.89,270.043,9.948,99.778
24.93,270.443,9.948,99.776
24.97,270.843,9.948,99.775
25.01,271.243,9.948,99.773
25.05,271.643,9.948,99.772
25.09,272.043,9.948,99.77
25.13,272.443,9.948,99.769
25.17,272.843,9.947,99.768
25.21,273.243,9.947,99.767
25.25,273.644,9.947,99.765
25.29,274.044,9.947,99.764
25.33,274.444,9.947,99.762
25.37,274.844,9.947,99.761
25.41,275.244,9.947,99.759
25.44,275.644,9.946,99.758
25.48,276.044,9.946,99.757
25.52,276.444,9.946,99.755
25.56,276.844,9.946,99.754
25.6,277.244,9.946,99.752
25.64,277.644,9.946,99.751
25.68,278.044,9.946,99.749
25.72,278.444,9.945,99.747
25.76,278.844,9.945,99.746
25.8,279.245,9.945,99.745
25.84,279.645,9.945,99.744
25.88,280.045,9.945,99.742
25.92,280.445,9.945,99.741
25.96,280.845,9.945,99.739
26,281.245,9.944,99.738
26.04,281.645,9.944,99.736
26.08,282.045,9.944,99.735
26.12,282.445,9.944,99.733
26.16,282.845,9.944,99.732
26.21,283.245,9.944,99.731
26.24,283.645,9.944,99.729
26.28,284.045,9.943,99.728
26.33,284.445,9.943,99.726
26.37,284.846,9.943,99.725
26.41,285.246,9.943,99.723
26.45,285.646,9.943,99.722
26.49,286.046,9.943,99.72
26.53,286.446,9.943,99.719
26.57,286.846,9.942,99.718
26.61,287.246,9.942,99.716
26.65,287.646,9.942,99.715
26.69,288.046,9.942,99.713
26.73,288.446,9.942,99.712
26.77,288.846,9.942,99.71
26.81,289.246,9.942,99.708
26.85,289.646,9.941,99.707
26.89,290.046,9.941,99.705
26.93,290.447,9.941,99.704
26.97,290.847,9.941,99.702
27.01,291.247,9.941,99.7
27.05,291.647,9.941,99.699
27.09,292.047,9.94,99.698
27.13,292.447,9.94,99.696
27.18,292.847,9.94,99.694
27.22,293.247,9.94,99.693
27.26,293.647,9.94,99.692
27.29,294.047,9.94,99.69
27.33,294.447,9.94,99.688
27.38,294.847,9.939,99.687
27.41,295.247,9.939,99.685
27.45,295.647,9.939,99.684
27.49,296.048,9.939,99.682
27.53,296.448,9.939,99.681
27.57,296.848,9.939,99.679
27.61,297.248,9.938,99.677
27.65,297.648,9.938,99.675
27.69,298.048,9.938,99.674
27.73,298.448,9.938,99.672
27.77,298.848,9.938,99.67
27.81,299.248,9.938,99.669
27.85,299.648,9.937,99.667
27.89,300.048,9.937,99.665
27.93,300.448,9.937,99.664
27.97,300.848,9.937,99.662
28.01,301.248,9.937,99.66
28.05,301.649,9.937,99.659
28.09,302.049,9.936,99.657
28.13,302.449,9.936,99.655
28.17,302.849,9.936,99.653
28.21,303.249,9.936,99.652
28.25,303.649,9.936,99.65
28.29,304.049,9.936,99.648
28.33,304.449,9.935,99.647
28.37,304.849,9.935,99.645
28.41,305.249,9.935,99.643
28.45,305.649,9.935,99.641
28.49,306.049,9.935,99.639
28.53,306.449,9.935,99.638
28.57,306.849,9.934,99.636
28.61,307.25,9.934,99.634
28.65,307.65,9.934,99.632
28.69,308.05,9.934,99.63
28.73,308.45,9.934,99.629
28.77,308.85,9.933,99.627
28.81,309.25,9.933,99.625
28.85,309.65,9.933,99.623
28.89,310.05,9.933,99.621
28.93,310.45,9.933,99.62
28.97,310.85,9.933,99.618
29.01,311.25,9.932,99.616
29.05,311.65,9.932,99.614
29.09,312.05,9.932,99.612
29.13,312.45,9.932,99.61
29.17,312.851,9.932,99.608
29.21,313.251,9.931,99.606
29.24,313.651,9.931,99.605
29.28,314.051,9.931,99.603
29.33,314.451,9.931,99.601
29.37,314.851,9.931,99.599
29.41,315.251,9.93,99.597
29.45,315.651,9.93,99.595
29.49,316.051,9.93,99.593
29.53,316.451,9.93,99.591
29.57,316.851,9.93,99.589
29.61,317.251,9.929,99.587
29.65,317.651,9.929,99.585
29.69,318.051,9.929,99.583
29.73,318.452,9.929,99.581
29.77,318.852,9.929,99.579
29.81,319.252,9.928,99.577
29.84,319.652,9.928,99.575
29.88,320.052,9.928,99.572
29.93,320.452,9.928,99.57
29.97,320.852,9.928,99.568
30,321.252,9.927,99.566
30.04,321.652,9.927,99.564
30.08,322.052,9.927,99.562
30.12,322.452,9.927,99.56
30.16,322.852,9.927,99.558
30.2,323.252,9.926,99.556
30.24,323.652,9.926,99.554
30.28,324.053,9.926,99.552
30.32,324.453,9.926,99.549
30.36,324.853,9.925,99.547
30.4,325.253,9.925,99.545
30.44,325.653,9.925,99.543
30.48,326.053,9.925,99.54
30.52,326.453,9.925,99.538
30.56,326.853,9.924,99.536
30.6,327.253,9.924,99.534
30.64,327.653,9.924,99.532
30.68,328.053,9.924,99.529
30.73,328.453,9.923,99.527
30.77,328.853,9.923,99.525
30.81,329.253,9.923,99.522
30.84,329.654,9.923,99.52
30.88,330.054,9.923,99.518
30.93,330.454,9.922,99.515
30.97,330.854,9.922,99.513
31.01,331.254,9.922,99.511
31.05,331.654,9.922,99.509
31.09,332.054,9.921,99.506
31.13,332.454,9.921,99.504
31.17,332.854,9.921,99.501
31.21,333.254,9.921,99.499
31.26,333.654,9.92,99.496
31.3,334.054,9.92,99.494
31.34,334.454,9.92,99.491
31.38,334.854,9.92,99.489
31.42,335.255,9.919,99.486
31.46,335.655,9.919,99.484
31.49,336.055,9.919,99.481
31.53,336.455,9.919,99.479
31.57,336.855,9.918,99.477
31.61,337.255,9.918,99.474
31.65,337.655,9.918,99.471
31.69,338.055,9.918,99.469
31.73,338.455,9.917,99.466
31.77,338.855,9.917,99.463
31.81,339.255,9.917,99.461
31.85,339.655,9.917,99.458
31.89,340.055,9.916,99.455
31.93,340.455,9.916,99.453
31.97,340.856,9.916,99.45
32.01,341.256,9.916,99.447
32.05,341.656,9.915,99.445
32.09,342.056,9.915,99.442
32.13,342.456,9.915,99.439
32.17,342.856,9.914,99.436
32.21,343.256,9.914,99.433
32.25,343.656,9.914,99.431
32.29,344.056,9.914,99.428
32.33,344.456,9.913,99.425
32.37,344.856,9.913,99.422
32.41,345.256,9.913,99.419
32.45,345.656,9.912,99.416
32.49,346.056,9.912,99.413
32.53,346.457,9.912,99.41
32.57,346.857,9.912,99.407
32.61,347.257,9.911,99.404
32.65,347.657,9.911,99.401
32.69,348.057,9.911,99.399
32.73,348.457,9.91,99.396
32.77,348.857,9.91,99.392
32.81,349.257,9.91,99.389
32.85,349.657,9.909,99.386
32.89,350.057,9.909,99.383
32.93,350.457,9.909,99.38
32.97,350.857,9.908,99.377
33.01,351.257,9.908,99.373
33.05,351.657,9.908,99.37
33.09,352.058,9.907,99.367
33.13,352.458,9.907,99.363
33.17,352.858,9.907,99.36
33.21,353.258,9.907,99.357
33.25,353.658,9.906,99.354
33.29,354.058,9.906,99.35
33.33,354.458,9.905,99.347
33.37,354.858,9.905,99.343
33.41,355.258,9.905,99.34
33.44,355.658,9.904,99.336
33.48,356.058,9.904,99.333
33.53,356.458,9.904,99.329
33.57,356.858,9.903,99.325
33.61,357.258,9.903,99.322
33.64,357.659,9.903,99.318
33.68,358.059,9.902,99.314
33.73,358.459,9.902,99.31
33.77,358.859,9.901,99.306
33.81,359.259,9.901,99.302
33.84,359.659,9.901,99.299
33.88,360.059,9.9,99.295
33.93,360.459,9.9,99.291
33.97,360.859,9.9,99.287
34.01,361.259,9.899,99.283
34.04,361.659,9.899,99.279
34.08,362.059,9.898,99.275
34.13,362.459,9.898,99.271
34.16,362.859,9.897,99.267
34.21,363.26,9.897,99.262
34.25,363.66,9.897,99.258
34.29,364.06,9.896,99.254
34.33,364.46,9.896,99.25
34.37,364.86,9.895,99.246
34.41,365.26,9.895,99.242
34.45,365.66,9.895,99.237
34.49,366.06,9.894,99.233
34.53,366.46,9.894,99.229
34.57,366.86,9.893,99.224
34.61,367.26,9.893,99.22
34.65,367.66,9.892,99.216
34.69,368.06,9.892,99.211
34.73,368.46,9.892,99.207
34.77,368.861,9.891,99.202
34.81,369.261,9.891,99.198
34.85,369.661,9.89,99.193
34.89,370.061,9.89,99.189
34.93,370.461,9.889,99.184
34.97,370.861,9.889,99.18
35.01,371.261,9.888,99.176
35.05,371.661,9.888,99.171
35.09,372.061,9.888,99.167
35.13,372.461,9.887,99.162
35.17,372.861,9.887,99.158
35.21,373.261,9.886,99.153
35.25,373.661,9.886,99.149
35.29,374.061,9.885,99.144
35.33,374.462,9.885,99.14
35.37,374.862,9.884,99.135
35.41,375.262,9.884,99.131
35.45,375.662,9.884,99.126
35.49,376.062,9.883,99.121
35.53,376.462,9.883,99.116
35.57,376.862,9.882,99.111
35.61,377.262,9.882,99.107
35.65,377.662,9.881,99.102
35.69,378.062,9.881,99.096
35.73,378.462,9.88,99.091
35.77,378.862,9.879,99.086
35.81,379.262,9.879,99.081
35.85,379.662,9.878,99.076
35.89,380.063,9.878,99.07
35.93,380.463,9.877,99.065
35.97,380.863,9.877,99.06
36.01,381.263,9.876,99.055
36.05,381.663,9.876,99.05
36.09,382.063,9.875,99.044
36.13,382.463,9.875,99.039
36.17,382.863,9.874,99.033
36.21,383.263,9.874,99.028
36.25,383.663,9.873,99.022
36.29,384.063,9.873,99.016
36.34,384.463,9.872,99.011
36.38,384.863,9.871,99.005
36.41,385.263,9.871,99
36.46,385.664,9.87,98.994
36.5,386.064,9.87,98.988
36.54,386.464,9.869,98.983
36.58,386.864,9.869,98.976
36.62,387.264,9.868,98.971
36.66,387.664,9.867,98.965
36.7,388.064,9.867,98.959
36.74,388.464,9.866,98.953
36.78,388.864,9.866,98.947
36.82,389.264,9.865,98.941
36.86,389.664,9.864,98.935
36.9,390.064,9.864,98.929
36.94,390.464,9.863,98.923
36.98,390.864,9.863,98.917
37.01,391.265,9.862,98.911
37.05,391.665,9.861,98.905
37.09,392.065,9.861,98.899
37.13,392.465,9.86,98.893
37.17,392.865,9.86,98.886
37.21,393.265,9.859,98.88
37.25,393.665,9.858,98.873
37.29,394.065,9.858,98.867
37.33,394.465,9.857,98.861
37.37,394.865,9.856,98.854
37.41,395.265,9.856,98.848
37.45,395.665,9.855,98.841
37.49,396.065,9.854,98.835
37.53,396.465,9.854,98.828
37.57,396.866,9.853,98.821
37.61,397.266,9.852,98.815
37.65,397.666,9.852,98.808
37.69,398.066,9.851,98.801
37.73,398.466,9.85,98.793
37.77,398.866,9.85,98.786
37.81,399.266,9.849,98.779
37.85,399.666,9.848,98.771
37.89,400.066,9.847,98.764
37.93,400.466,9.847,98.757
37.97,400.866,9.846,98.75
38.01,401.266,9.845,98.742
38.05,401.666,9.844,98.735
38.09,402.066,9.844,98.728
38.13,402.467,9.843,98.72
38.17,402.867,9.842,98.712
38.21,403.267,9.841,98.705
38.25,403.667,9.841,98.697
38.29,404.067,9.84,98.69
38.33,404.467,9.839,98.682
38.36,404.867,9.838,98.674
38.41,405.267,9.838,98.666
38.44,405.667,9.837,98.657
38.49,406.067,9.836,98.649
38.53,406.467,9.835,98.641
38.56,406.867,9.834,98.632
38.61,407.267,9.833,98.623
38.64,407.667,9.833,98.615
38.69,408.068,9.832,98.606
38.73,408.468,9.831,98.597
38.76,408.868,9.83,98.588
38.81,409.268,9.829,98.579
38.84,409.668,9.828,98.57
38.89,410.068,9.827,98.56
38.93,410.468,9.826,98.55
38.97,410.868,9.825,98.541
39.01,411.268,9.824,98.532
39.05,411.668,9.823,98.522
39.09,412.068,9.822,98.512
39.13,412.468,9.821,98.502
39.17,412.868,9.82,98.492
39.21,413.268,9.819,98.482
39.25,413.669,9.818,98.471
39.29,414.069,9.817,98.46
39.33,414.469,9.816,98.45
39.36,414.869,9.815,98.44
39.41,415.269,9.814,98.429
39.44,415.669,9.813,98.418
39.49,416.069,9.812,98.407
39.53,416.469,9.811,98.395
39.56,416.869,9.809,98.384
39.61,417.269,9.808,98.372
39.64,417.669,9.807,98.36
39.69,418.069,9.806,98.348
39.73,418.469,9.805,98.336
39.76,418.869,9.803,98.323
39.81,419.27,9.802,98.31
39.85,419.67,9.801,98.298
39.89,420.07,9.8,98.284
39.93,420.47,9.798,98.271
39.97,420.87,9.797,98.257
40.01,421.27,9.795,98.243
40.05,421.67,9.794,98.229
40.09,422.07,9.793,98.214
40.13,422.47,9.791,98.2
40.17,422.87,9.79,98.185
40.21,423.27,9.788,98.17
40.25,423.67,9.787,98.155
40.29,424.07,9.785,98.14
40.33,424.47,9.784,98.125
40.38,424.871,9.782,98.109
40.41,425.271,9.781,98.093
40.46,425.671,9.779,98.077
40.5,426.071,9.777,98.061
40.54,426.471,9.776,98.044
40.58,426.871,9.774,98.029
40.61,427.271,9.772,98.012
40.66,427.671,9.771,97.996
40.69,428.071,9.769,97.979
40.73,428.471,9.767,97.962
40.77,428.871,9.766,97.946
40.81,429.271,9.764,97.929
40.85,429.671,9.762,97.911
40.89,430.071,9.761,97.893
40.93,430.472,9.759,97.874
40.97,430.872,9.757,97.855
41.01,431.272,9.755,97.837
41.05,431.672,9.753,97.818
41.09,432.072,9.751,97.799
41.13,432.472,9.749,97.78
41.17,432.872,9.747,97.761
41.21,433.272,9.746,97.742
41.25,433.672,9.743,97.721
41.29,434.072,9.741,97.7
41.33,434.472,9.739,97.678
41.37,434.872,9.737,97.657
41.41,435.272,9.735,97.635
41.45,435.672,9.733,97.613
41.49,436.073,9.73,97.591
41.53,436.473,9.728,97.568
41.57,436.873,9.726,97.545
41.61,437.273,9.724,97.522
41.66,437.673,9.721,97.498
41.69,438.073,9.719,97.475
41.74,438.473,9.716,97.45
41.78,438.873,9.714,97.425
41.81,439.273,9.712,97.402
41.85,439.673,9.709,97.379
41.89,440.073,9.707,97.355
41.93,440.473,9.705,97.331
41.97,440.873,9.702,97.306
42.01,441.273,9.7,97.282
42.05,441.674,9.697,97.256
42.09,442.074,9.694,97.23
42.13,442.474,9.692,97.203
42.17,442.874,9.689,97.176
42.21,443.274,9.686,97.149
42.25,443.674,9.684,97.122
42.29,444.074,9.681,97.095
42.33,444.474,9.678,97.067
42.37,444.874,9.675,97.04
42.41,445.274,9.673,97.012
42.45,445.674,9.67,96.983
42.49,446.074,9.667,96.954
42.53,446.474,9.664,96.925
42.57,446.874,9.661,96.896
42.61,447.275,9.658,96.866
42.65,447.675,9.655,96.836
42.69,448.075,9.652,96.804
42.73,448.475,9.649,96.772
42.77,448.875,9.646,96.741
42.81,449.275,9.642,96.708
42.85,449.675,9.639,96.675
42.89,450.075,9.636,96.644
42.93,450.475,9.633,96.611
42.97,450.875,9.629,96.577
43.01,451.275,9.626,96.544
43.05,451.675,9.623,96.509
43.09,452.075,9.619,96.473
43.13,452.475,9.615,96.437
43.17,452.876,9.612,96.401
43.21,453.276,9.608,96.362
43.25,453.676,9.604,96.324
43.29,454.076,9.6,96.286
43.33,454.476,9.596,96.247
43.37,454.876,9.593,96.209
43.41,455.276,9.589,96.168
43.45,455.676,9.585,96.129
43.49,456.076,9.58,96.087
43.53,456.476,9.576,96.046
43.57,456.876,9.572,96.003
43.61,457.276,9.568,95.959
43.65,457.676,9.563,95.913
43.69,458.076,9.558,95.862
43.73,458.477,9.553,95.812
43.77,458.877,9.548,95.763
43.81,459.277,9.543,95.708
43.85,459.677,9.537,95.652
43.89,460.077,9.531,95.594
43.93,460.477,9.526,95.537
43.97,460.877,9.52,95.477
44.01,461.277,9.513,95.41
44.05,461.677,9.506,95.344
44.09,462.077,9.5,95.276
44.13,462.477,9.493,95.207
44.17,462.877,9.486,95.137
44.21,463.277,9.478,95.06
44.25,463.677,9.47,94.984
44.29,464.078,9.463,94.908
44.33,464.478,9.455,94.827
44.37,464.878,9.447,94.744
44.41,465.278,9.438,94.661
44.46,465.678,9.429,94.572
44.49,466.078,9.421,94.483
44.54,466.478,9.411,94.391
44.58,466.878,9.402,94.3
44.62,467.278,9.392,94.202
44.66,467.678,9.383,94.104
44.69,468.078,9.373,94.008
44.73,468.478,9.363,93.909
44.77,468.878,9.353,93.805
44.81,469.278,9.342,93.696
44.85,469.679,9.331,93.582
44.89,470.079,9.32,93.472
44.93,470.479,9.308,93.355
44.97,470.879,9.297,93.241
45.01,471.279,9.285,93.125
45.05,471.679,9.273,93.004
45.09,472.079,9.261,92.88
45.13,472.479,9.248,92.751
45.17,472.879,9.235,92.619
45.21,473.279,9.22,92.476
45.25,473.679,9.206,92.328
45.29,474.079,9.191,92.184
45.33,474.479,9.176,92.028
45.37,474.879,9.162,91.885
45.41,475.28,9.147,91.741
45.45,475.68,9.131,91.582
45.49,476.08,9.114,91.411
45.53,476.48,9.097,91.24
45.57,476.88,9.079,91.057
45.61,477.28,9.061,90.875
45.64,477.68,9.043,90.697
45.69,478.08,9.023,90.498
45.73,478.48,9.005,90.313
45.77,478.88,8.986,90.128
45.81,479.28,8.968,89.946
45.84,479.68,8.95,89.764
45.89,480.08,8.93,89.561
45.93,480.48,8.908,89.345
45.96,480.881,8.887,89.132
46.01,481.281,8.865,88.915
46.04,481.681,8.844,88.704
46.09,482.081,8.824,88.502
46.13,482.481,8.803,88.289
46.17,482.881,8.779,88.052
46.21,483.281,8.754,87.8
46.25,483.681,8.727,87.526
46.29,484.081,8.699,87.245
46.33,484.481,8.674,86.998
46.37,484.881,8.649,86.748
46.41,485.281,8.623,86.483
46.45,485.681,8.594,86.189
46.49,486.081,8.562,85.877
46.53,486.482,8.529,85.541
46.57,486.882,8.495,85.201
46.61,487.282,8.459,84.838
46.66,487.682,8.423,84.476
46.69,488.082,8.39,84.148
46.73,488.482,8.36,83.851
46.77,488.882,8.329,83.531
46.81,489.282,8.294,83.182
46.85,489.682,8.256,82.808
46.89,490.082,8.217,82.411
46.93,490.482,8.176,82.001
46.96,490.882,8.132,81.559
47.01,491.282,8.087,81.111
47.04,491.682,8.044,80.681
47.09,492.083,8.002,80.255
47.13,492.483,7.962,79.853
47.16,492.883,7.919,79.42
47.21,493.283,7.868,78.91
47.24,493.683,7.813,78.36
47.29,494.083,7.758,77.808
47.33,494.483,7.705,77.281
47.36,494.883,7.657,76.797
47.41,495.283,7.602,76.249
47.44,495.683,7.544,75.661
47.49,496.083,7.483,75.053
47.53,496.483,7.423,74.449
47.56,496.883,7.363,73.843
47.61,497.283,7.298,73.197
47.64,497.684,7.236,72.572
47.69,498.084,7.168,71.887
47.73,498.484,7.096,71.167
47.77,498.884,7.024,70.447
47.81,499.284,6.947,69.674
47.85,499.684,6.876,68.96
47.89,500.084,6.8,68.2
47.93,500.484,6.716,67.358
47.97,500.884,6.64,66.592
48.01,501.284,6.558,65.771
48.05,501.684,6.472,64.915
48.09,502.084,6.391,64.099
48.13,502.484,6.304,63.225
48.17,502.884,6.215,62.334
48.21,503.285,6.126,61.436
48.25,503.685,6.033,60.51
48.29,504.085,5.94,59.572
48.33,504.485,5.843,58.599
48.37,504.885,5.746,57.632
48.41,505.285,5.648,56.642
48.45,505.685,5.544,55.605
48.49,506.085,5.444,54.597
48.53,506.485,5.34,53.554
48.57,506.885,5.229,52.448
48.61,507.285,5.12,51.352
48.65,507.685,5.005,50.201
48.69,508.085,4.892,49.066
48.73,508.485,4.777,47.908
48.77,508.886,4.661,46.748
48.81,509.286,4.542,45.553
48.85,509.686,4.419,44.317
48.89,510.086,4.296,43.083
48.93,510.486,4.173,41.853
48.97,510.886,4.048,40.603
49.01,511.286,3.927,39.383
49.05,511.686,3.803,38.143
49.09,512.086,3.673,36.837
49.13,512.486,3.544,35.548
49.17,512.886,3.414,34.237
49.21,513.286,3.284,32.937
49.25,513.686,3.149,31.586
49.29,514.086,3.018,30.274
49.33,514.487,2.885,28.933
49.37,514.887,2.759,27.669
49.41,515.287,2.636,26.439
49.45,515.687,2.516,25.238
49.49,516.087,2.397,24.042
49.53,516.487,2.274,22.81
49.57,516.887,2.151,21.575
49.61,517.287,2.031,20.367
49.65,517.687,1.921,19.265
49.69,518.087,1.809,18.147
49.73,518.487,1.708,17.126
49.77,518.887,1.603,16.078
49.81,519.287,1.497,15.009
49.85,519.687,1.392,13.958
49.89,520.088,1.291,12.953
49.93,520.488,1.198,12.02
49.97,520.888,1.109,11.123
50.01,521.288,1.024,10.269
50.05,521.688,0.9440000,9.465
50.09,522.088,0.8660000,8.683
50.13,522.488,0.7910000,7.937
50.17,522.888,0.7210000,7.232
50.21,523.288,0.6560000,6.581
50.25,523.688,0.6010000,6.025
50.29,524.088,0.5470000,5.482
50.33,524.488,0.4980000,4.991
50.37,524.888,0.4530000,4.541
50.41,525.288,0.4120000,4.134
50.45,525.689,0.3760000,3.766
50.49,526.089,0.3430000,3.437
50.53,526.489,0.3130000,3.14
50.57,526.889,0.2870000,2.876
50.61,527.289,0.2640000,2.646
50.65,527.689,0.2440000,2.445
50.69,528.089,0.2260000,2.27
50.73,528.489,0.2120000,2.123
50.77,528.889,0.1990000,1.996
50.81,529.289,0.1890000,1.893
50.85,529.689,0.1800000,1.808
50.89,530.089,0.1730000,1.737
50.93,530.489,0.1680000,1.684
50.97,530.889,0.1640000,1.645
51.01,531.29,0.1610000,1.617
51.05,531.69,0.1590000,1.59
51.09,532.09,0.1560000,1.563
51.13,532.49,0.1530000,1.537
51.17,532.89,0.1510000,1.513
51.21,533.29,0.1490000,1.492
51.25,533.69,0.1470000,1.473
51.29,534.09,0.1450000,1.457
51.33,534.49,0.1440000,1.443
51.37,534.89,0.1430000,1.431
51.41,535.29,0.1420000,1.421
51.45,535.69,0.1410000,1.413
51.49,536.09,0.1400000,1.406
51.53,536.49,0.1400000,1.4
51.57,536.891,0.1390000,1.395
51.61,537.291,0.1390000,1.39
51.65,537.691,0.1380000,1.387
51.69,538.091,0.1380000,1.384
51.73,538.491,0.1380000,1.382
51.77,538.891,0.1380000,1.38
51.81,539.291,0.1370000,1.378
51.85,539.691,0.1370000,1.377
51.89,540.091,0.1370000,1.376
51.93,540.491,0.1370000,1.375
51.97,540.891,0.1370000,1.374
52.01,541.291,0.1370000,1.373
52.05,541.691,0.1370000,1.373
52.09,542.091,0.1370000,1.372
52.13,542.492,0.1370000,1.371
52.17,542.892,0.1370000,1.371
52.21,543.292,0.1370000,1.371
52.25,543.692,0.1370000,1.37
52.29,544.092,0.1370000,1.37
52.33,544.492,0.1370000,1.37
52.37,544.892,0.1370000,1.369
52.41,545.292,0.1360000,1.369
52.45,545.692,0.1360000,1.368
52.49,546.092,0.1360000,1.368
52.53,546.492,0.1360000,1.368
52.57,546.892,0.1360000,1.368
52.61,547.292,0.1360000,1.368
52.65,547.692,0.1360000,1.367
52.69,548.093,0.1360000,1.367
52.73,548.493,0.1360000,1.367
52.77,548.893,0.1360000,1.368
52.81,549.293,0.1360000,1.367
52.85,549.693,0.1360000,1.367
52.89,550.093,0.1360000,1.367
52.93,550.493,0.1360000,1.367
52.97,550.893,0.1360000,1.367
53.01,551.293,0.1360000,1.367
53.05,551.693,0.1360000,1.367
53.09,552.093,0.1360000,1.367
53.13,552.493,0.1360000,1.367
53.17,552.893,0.1360000,1.367
53.21,553.293,0.1360000,1.367
53.25,553.694,0.1360000,1.367
53.29,554.094,0.1360000,1.366
53.33,554.494,0.1360000,1.366
53.37,554.894,0.1360000,1.366
53.41,555.294,0.1360000,1.366
53.45,555.694,0.1360000,1.366
53.49,556.094,0.1360000,1.366
53.53,556.494,0.1360000,1.366
53.57,556.894,0.1360000,1.366
53.61,557.294,0.1360000,1.366
53.65,557.694,0.1360000,1.366
53.69,558.094,0.1360000,1.365
53.73,558.494,0.1360000,1.365
53.76,558.894,0.1360000,1.365
53.81,559.295,0.1360000,1.365
53.84,559.695,0.1360000,1.365
53.89,560.095,0.1360000,1.365
53.93,560.495,0.1360000,1.365
53.96,560.895,0.1360000,1.365
54.01,561.295,0.1360000,1.365
54.05,561.695,0.1360000,1.364
54.09,562.095,0.1360000,1.364
54.13,562.495,0.1360000,1.364
54.17,562.895,0.1360000,1.364
54.21,563.295,0.1360000,1.364
54.25,563.695,0.1360000,1.364
54.29,564.095,0.1360000,1.363
54.33,564.495,0.1360000,1.363
54.36,564.896,0.1360000,1.363
54.4,565.296,0.1360000,1.363
54.44,565.696,0.1360000,1.363
54.48,566.096,0.1360000,1.363
54.52,566.496,0.1360000,1.363
54.56,566.896,0.1360000,1.363
54.6,567.296,0.1360000,1.363
54.64,567.696,0.1360000,1.363
54.68,568.096,0.1360000,1.363
54.72,568.496,0.1360000,1.363
54.76,568.896,0.1360000,1.362
54.8,569.296,0.1360000,1.362
54.84,569.696,0.1360000,1.362
54.88,570.096,0.1360000,1.362
54.92,570.497,0.1360000,1.362
54.96,570.897,0.1360000,1.362
55,571.297,0.1360000,1.362
55.04,571.697,0.1360000,1.362
55.08,572.097,0.1360000,1.362
55.12,572.497,0.1360000,1.362
55.16,572.897,0.1360000,1.361
55.21,573.297,0.1360000,1.361
55.24,573.697,0.1360000,1.361
55.29,574.097,0.1360000,1.361
55.33,574.497,0.1360000,1.361
55.37,574.897,0.1360000,1.361
55.41,575.297,0.1360000,1.36
55.45,575.697,0.1360000,1.36
55.49,576.098,0.1360000,1.36
55.53,576.498,0.1360000,1.36
55.57,576.898,0.1360000,1.36
55.61,577.298,0.1360000,1.359
55.65,577.698,0.1360000,1.359
55.69,578.098,0.1350000,1.359
55.73,578.498,0.1350000,1.359
55.77,578.898,0.1350000,1.358
55.81,579.298,0.1350000,1.358
55.84,579.698,0.1350000,1.358
55.89,580.098,0.1350000,1.358
55.93,580.498,0.1350000,1.357
55.96,580.898,0.1350000,1.357
56.01,581.298,0.1350000,1.357
56.04,581.699,0.1350000,1.356
56.08,582.099,0.1350000,1.356
56.12,582.499,0.1350000,1.355
56.16,582.899,0.1350000,1.355
56.2,583.299,0.1350000,1.354
56.24,583.699,0.1350000,1.353
56.28,584.099,0.1350000,1.353
56.32,584.499,0.1350000,1.352
56.36,584.899,0.1350000,1.352
56.4,585.299,0.1350000,1.351
56.44,585.699,0.1350000,1.351
56.48,586.099,0.1350000,1.35
56.52,586.499,0.1350000,1.35
56.56,586.899,0.1350000,1.349
56.6,587.3,0.1340000,1.348
56.64,587.7,0.1340000,1.348
56.68,588.1,0.1340000,1.347
56.72,588.5,0.1340000,1.347
56.76,588.9,0.1340000,1.346
56.8,589.3,0.1340000,1.346
56.84,589.7,0.1340000,1.345
56.87,590,0.1340000,1.345