File: R/rHDPE_App/app/www/Output/TGA/Condensed_Data/Resin5_2__1.csv
0.9800000,30,15.153,100.035,0.0043806
1.04,30.5001,15.154,100.037,0.0039589
1.1,31.0002,15.154,100.039,0.0015681
1.16,31.5003,15.154,100.04,0.0001061
1.21,32.0004,15.154,100.042,0.0045232
1.27,32.5004,15.155,100.043,0.0016136
1.33,33.0005,15.155,100.044,0.0011850
1.38,33.5006,15.155,100.045,0.0035758
1.44,34.0007,15.155,100.046,-0.0000508
1.49,34.5008,15.155,100.047,0.0039264
1.55,35.0009,15.155,100.048,0.0004005
1.6,35.501,15.155,100.048,0.0013946
1.66,36.0011,15.156,100.049,0.0024283
1.71,36.5012,15.156,100.05,0.0000987
1.77,37.0013,15.156,100.051,0.0029995
1.82,37.5013,15.156,100.052,0.0011277
1.87,38.0014,15.156,100.052,0.0014678
1.93,38.5015,15.156,100.053,0.0030744
1.98,39.0016,15.156,100.054,0.0007308
2.03,39.5017,15.156,100.055,0.0008750
2.08,40.0018,15.157,100.055,0.0023771
2.14,40.5019,15.157,100.056,0.0018886
2.19,41.002,15.157,100.057,0.0007735
2.24,41.5021,15.157,100.058,0.0023162
2.29,42.0021,15.157,100.059,0.0016859
2.35,42.5022,15.157,100.059,0.0005771
2.4,43.0023,15.157,100.06,0.0010571
2.45,43.5024,15.157,100.061,0.0021592
2.51,44.0025,15.157,100.062,0.0018214
2.56,44.5026,15.158,100.062,0.0000957
2.61,45.0027,15.158,100.063,0.0013860
2.66,45.5028,15.158,100.064,0.0015745
2.71,46.0029,15.158,100.065,0.0008576
2.77,46.5029,15.158,100.065,0.0009515
2.82,47.003,15.158,100.066,0.0014727
2.87,47.5031,15.158,100.067,0.0018027
2.92,48.0032,15.158,100.067,0.0012793
2.97,48.5033,15.158,100.068,0.0015149
3.03,49.0034,15.158,100.068,0.0008512
3.08,49.5035,15.159,100.069,0.0010392
3.13,50.0036,15.159,100.07,0.0017459
3.18,50.5037,15.159,100.071,0.0015556
3.23,51.0038,15.159,100.071,0.0013184
3.28,51.5038,15.159,100.072,0.0014102
3.34,52.0039,15.159,100.073,0.0014093
3.39,52.504,15.159,100.073,0.0011255
3.44,53.0041,15.159,100.074,0.0013590
3.49,53.5042,15.159,100.075,0.0012643
3.54,54.0043,15.16,100.075,0.0017313
3.59,54.5044,15.16,100.076,0.0008881
3.64,55.0045,15.16,100.077,0.0012614
3.69,55.5046,15.16,100.077,0.0017273
3.74,56.0046,15.16,100.078,0.0013525
3.79,56.5047,15.16,100.079,0.0015842
3.84,57.0048,15.16,100.08,0.0011648
3.9,57.5049,15.16,100.08,0.0014889
3.95,58.005,15.16,100.081,0.0010693
4,58.5051,15.16,100.081,0.0012087
4.05,59.0052,15.161,100.082,0.0014402
4.1,59.5053,15.161,100.082,0.0010677
4.15,60.0054,15.161,100.083,0.0014844
4.2,60.5054,15.161,100.083,0.0010196
4.25,61.0055,15.161,100.084,0.0007406
4.3,61.5056,15.161,100.085,0.0013412
4.35,62.0057,15.161,100.085,0.0006934
4.4,62.5058,15.161,100.086,0.0011092
4.45,63.0059,15.161,100.086,0.0012466
4.5,63.506,15.161,100.087,0.0014773
4.55,64.0061,15.161,100.087,0.0011993
4.6,64.5062,15.161,100.088,0.0011986
4.65,65.0063,15.162,100.089,0.0013361
4.7,65.5063,15.162,100.089,0.0008290
4.75,66.0064,15.162,100.09,0.0012887
4.8,66.5065,15.162,100.09,0.0008286
4.85,67.0066,15.162,100.091,0.0010580
4.9,67.5067,15.162,100.091,0.0008282
4.96,68.0068,15.162,100.092,0.0008281
5.01,68.5069,15.162,100.092,0.0011959
5.06,69.007,15.162,100.093,0.0010117
5.11,69.5071,15.162,100.093,0.0010115
5.16,70.0071,15.162,100.094,0.0011033
5.21,70.5072,15.162,100.094,0.0014243
5.26,71.0073,15.162,100.095,0.0005973
5.31,71.5074,15.163,100.095,0.0010100
5.36,72.0075,15.163,100.096,0.0009185
5.41,72.5076,15.163,100.096,0.0007804
5.46,73.0077,15.163,100.097,0.0010553
5.51,73.5078,15.163,100.097,0.0011006
5.56,74.0079,15.163,100.098,0.0011008
5.61,74.5079,15.163,100.098,0.0008707
5.66,75.008,15.163,100.098,0.0012374
5.71,75.5081,15.163,100.099,0.0008706
5.76,76.0082,15.163,100.099,0.0010993
5.81,76.5083,15.163,100.1,0.0004581
5.86,77.0084,15.163,100.1,0.0010997
5.91,77.5085,15.163,100.1,0.0008247
5.96,78.0086,15.163,100.101,0.0004582
6.01,78.5087,15.163,100.101,0.0008701
6.06,79.0088,15.163,100.101,0.0007327
6.11,79.5088,15.164,100.102,0.0009156
6.16,80.0089,15.164,100.102,0.0002746
6.21,80.509,15.164,100.103,0.0005034
6.26,81.0091,15.164,100.103,0.0008697
6.31,81.5092,15.164,100.103,0.0000915
6.36,82.0093,15.164,100.104,0.0005033
6.41,82.5094,15.164,100.104,0.0005492
6.46,83.0095,15.164,100.104,0.0002288
6.51,83.5096,15.164,100.104,0.0009612
6.56,84.0096,15.164,100.105,0.0008239
6.61,84.5097,15.164,100.105,0.0005496
6.66,85.0098,15.164,100.105,0.0007783
6.71,85.5099,15.164,100.106,0.0005037
6.76,86.01,15.164,100.106,0.0005034
6.81,86.5101,15.164,100.106,0.0009607
6.86,87.0102,15.164,100.107,0.0005034
6.91,87.5103,15.164,100.107,0.0005490
6.96,88.0104,15.164,100.107,0.0005947
7.01,88.5104,15.164,100.107,0.0002744
7.06,89.0105,15.164,100.108,0.0004573
7.11,89.5106,15.164,100.108,0.0007772
7.16,90.0107,15.164,100.108,0.0004117
7.21,90.5108,15.165,100.108,0.0007319
7.26,91.0109,15.165,100.109,0.0006403
7.31,91.511,15.165,100.109,0.0000915
7.36,92.0111,15.165,100.109,0.0001373
7.41,92.5112,15.165,100.109,0.0005035
7.46,93.0113,15.165,100.109,-0.0000000
7.51,93.5113,15.165,100.109,0.0002289
7.56,94.0114,15.165,100.11,0.0005493
7.61,94.5115,15.165,100.11,0.0000000
7.66,95.0116,15.165,100.11,0.0008239
7.71,95.5117,15.165,100.11,0.0008695
7.76,96.0118,15.165,100.11,0.0004576
7.81,96.5119,15.165,100.111,0.0002745
7.86,97.012,15.165,100.111,0.0006406
7.91,97.5121,15.165,100.111,0.0004574
7.96,98.0121,15.165,100.111,0.0003203
8.01,98.5122,15.165,100.111,0.0003659
8.06,99.0123,15.165,100.111,0.0001830
8.11,99.5124,15.165,100.111,-0.0000915
8.16,100.013,15.165,100.111,0.0003661
8.21,100.513,15.165,100.111,-0.0001832
8.26,101.013,15.165,100.112,-0.0000458
8.31,101.513,15.165,100.112,0.0000458
8.36,102.013,15.165,100.112,0.0000915
8.41,102.513,15.165,100.112,0.0004121
8.46,103.013,15.165,100.112,0.0003204
8.51,103.513,15.165,100.112,-0.0000457
8.56,104.013,15.165,100.112,0.0002289
8.61,104.513,15.165,100.112,-0.0001374
8.66,105.013,15.165,100.112,0.0002746
8.71,105.513,15.165,100.112,0.0000458
8.76,106.014,15.165,100.112,-0.0000915
8.81,106.514,15.165,100.112,0.0000916
8.86,107.014,15.165,100.112,-0.0000458
8.91,107.514,15.165,100.112,-0.0001375
8.96,108.014,15.165,100.112,0.0000916
9.01,108.514,15.165,100.112,-0.0004120
9.06,109.014,15.165,100.112,-0.0000000
9.11,109.514,15.165,100.112,-0.0001374
9.16,110.014,15.165,100.112,-0.0003206
9.21,110.514,15.165,100.112,0.0001375
9.26,111.014,15.165,100.112,-0.0000000
9.31,111.515,15.165,100.112,-0.0005500
9.36,112.015,15.165,100.112,0.0002291
9.41,112.515,15.165,100.112,0.0001833
9.46,113.015,15.165,100.113,0.0000458
9.51,113.515,15.165,100.113,0.0002292
9.56,114.015,15.165,100.113,0.0003209
9.61,114.515,15.165,100.113,-0.0000917
9.66,115.015,15.165,100.113,0.0005955
9.71,115.515,15.165,100.113,0.0000916
9.76,116.015,15.165,100.113,-0.0003207
9.81,116.515,15.165,100.113,0.0003666
9.86,117.016,15.165,100.112,-0.0005496
9.91,117.516,15.165,100.112,-0.0001833
9.96,118.016,15.165,100.112,0.0001834
10.01,118.516,15.165,100.112,-0.0002750
10.06,119.016,15.165,100.112,0.0001375
10.11,119.516,15.165,100.112,0.0000917
10.16,120.016,15.165,100.112,-0.0001834
10.21,120.516,15.165,100.112,0.0001376
10.26,121.016,15.165,100.112,0.0003211
10.31,121.516,15.165,100.112,0.0001835
10.36,122.016,15.165,100.112,0.0004129
10.41,122.517,15.165,100.112,0.0000459
10.46,123.017,15.165,100.112,-0.0004587
10.51,123.517,15.165,100.112,-0.0003669
10.56,124.017,15.165,100.112,0.0001377
10.61,124.517,15.165,100.112,-0.0004128
10.66,125.017,15.165,100.112,-0.0005047
10.71,125.517,15.165,100.112,-0.0002294
10.76,126.017,15.165,100.112,0.0000917
10.81,126.517,15.165,100.112,-0.0003212
10.86,127.017,15.165,100.112,0.0001835
10.91,127.517,15.165,100.113,0.0002753
10.96,128.018,15.165,100.113,-0.0001377
11.01,128.518,15.165,100.113,0.0004127
11.06,129.018,15.165,100.113,0.0001833
11.11,129.518,15.165,100.113,0.0001375
11.16,130.018,15.165,100.113,0.0000000
11.21,130.518,15.165,100.113,-0.0002291
11.26,131.018,15.165,100.113,0.0000458
11.31,131.518,15.165,100.113,-0.0000916
11.36,132.018,15.165,100.113,0.0000458
11.41,132.518,15.165,100.113,0.0000457
11.46,133.018,15.165,100.113,-0.0003656
11.51,133.518,15.165,100.112,0.0000456
11.56,134.019,15.165,100.112,-0.0002739
11.61,134.519,15.165,100.112,-0.0008210
11.66,135.019,15.165,100.111,-0.0008660
11.71,135.519,15.165,100.111,-0.0012295
11.76,136.019,15.165,100.111,-0.0013200
11.81,136.519,15.165,100.11,-0.0012277
11.86,137.019,15.165,100.109,-0.0017270
11.91,137.519,15.164,100.108,-0.0018611
11.96,138.019,15.164,100.107,-0.0024952
12.01,138.519,15.164,100.106,-0.0021749
12.06,139.019,15.164,100.105,-0.0022202
12.11,139.52,15.164,100.104,-0.0022649
12.16,140.02,15.164,100.103,-0.0023572
12.21,140.52,15.163,100.101,-0.0024043
12.26,141.02,15.163,100.1,-0.0021804
12.31,141.52,15.163,100.099,-0.0025928
12.36,142.02,15.163,100.098,-0.0025508
12.41,142.52,15.163,100.097,-0.0019626
12.46,143.02,15.163,100.096,-0.0021948
12.51,143.52,15.162,100.095,-0.0017846
12.56,144.02,15.162,100.094,-0.0020164
12.61,144.52,15.162,100.093,-0.0018365
12.66,145.021,15.162,100.092,-0.0014703
12.71,145.521,15.162,100.091,-0.0019779
12.76,146.021,15.162,100.09,-0.0014266
12.81,146.521,15.162,100.09,-0.0013351
12.86,147.021,15.162,100.089,-0.0019333
12.91,147.521,15.161,100.088,-0.0014273
12.96,148.021,15.161,100.087,-0.0015648
13.01,148.521,15.161,100.086,-0.0016563
13.06,149.021,15.161,100.086,-0.0012883
13.11,149.521,15.161,100.085,-0.0012419
13.16,150.021,15.161,100.084,-0.0013331
13.21,150.522,15.161,100.083,-0.0015633
13.26,151.022,15.161,100.083,-0.0011491
13.31,151.522,15.161,100.082,-0.0010110
13.36,152.022,15.16,100.081,-0.0017928
13.41,152.522,15.16,100.081,-0.0011489
13.46,153.022,15.16,100.08,-0.0009187
13.51,153.522,15.16,100.079,-0.0015611
13.56,154.022,15.16,100.079,-0.0014692
13.61,154.522,15.16,100.078,-0.0010560
13.66,155.022,15.16,100.077,-0.0019288
13.71,155.522,15.16,100.076,-0.0011481
13.76,156.023,15.16,100.076,-0.0011480
13.81,156.523,15.159,100.075,-0.0016533
13.86,157.023,15.159,100.074,-0.0013769
13.91,157.523,15.159,100.073,-0.0012388
13.96,158.023,15.159,100.073,-0.0015145
14.01,158.523,15.159,100.072,-0.0015138
14.06,159.023,15.159,100.071,-0.0016977
14.11,159.523,15.159,100.07,-0.0017898
14.16,160.023,15.159,100.07,-0.0015145
14.21,160.523,15.159,100.069,-0.0017886
14.26,161.023,15.158,100.068,-0.0015592
14.31,161.523,15.158,100.067,-0.0016499
14.36,162.024,15.158,100.066,-0.0019240
14.41,162.524,15.158,100.066,-0.0013746
14.46,163.024,15.158,100.065,-0.0011454
14.51,163.524,15.158,100.064,-0.0018780
14.56,164.024,15.158,100.063,-0.0014661
14.61,164.524,15.158,100.062,-0.0013284
14.66,165.024,15.157,100.062,-0.0016481
14.71,165.524,15.157,100.061,-0.0017407
14.76,166.024,15.157,100.06,-0.0016034
14.81,166.524,15.157,100.059,-0.0020157
14.86,167.024,15.157,100.058,-0.0015577
14.91,167.525,15.157,100.057,-0.0018337
14.96,168.025,15.157,100.056,-0.0021539
15.01,168.525,15.156,100.055,-0.0021986
15.06,169.025,15.156,100.054,-0.0018790
15.11,169.525,15.156,100.053,-0.0018790
15.16,170.025,15.156,100.052,-0.0018790
15.21,170.525,15.156,100.051,-0.0017420
15.26,171.025,15.156,100.05,-0.0016963
15.31,171.525,15.156,100.05,-0.0023835
15.37,172.025,15.155,100.049,-0.0022452
15.42,172.525,15.155,100.048,-0.0017415
15.47,173.026,15.155,100.047,-0.0017878
15.52,173.526,15.155,100.046,-0.0022436
15.57,174.026,15.155,100.044,-0.0021978
15.62,174.526,15.155,100.043,-0.0023362
15.67,175.026,15.155,100.042,-0.0019693
15.72,175.526,15.154,100.041,-0.0023810
15.77,176.026,15.154,100.04,-0.0019701
15.82,176.526,15.154,100.039,-0.0019239
15.87,177.026,15.154,100.038,-0.0022904
15.92,177.526,15.154,100.037,-0.0018323
15.97,178.026,15.154,100.036,-0.0018782
16.02,178.527,15.153,100.035,-0.0023352
16.07,179.027,15.153,100.034,-0.0021520
16.12,179.527,15.153,100.033,-0.0016493
16.17,180.027,15.153,100.032,-0.0020616
16.22,180.527,15.153,100.031,-0.0023364
16.27,181.027,15.153,100.03,-0.0016488
16.32,181.527,15.152,100.029,-0.0017409
16.37,182.027,15.152,100.028,-0.0026564
16.42,182.527,15.152,100.027,-0.0020159
16.47,183.027,15.152,100.026,-0.0017882
16.52,183.527,15.152,100.024,-0.0025199
16.57,184.028,15.152,100.023,-0.0021998
16.62,184.528,15.151,100.022,-0.0020174
16.67,185.028,15.151,100.021,-0.0025666
16.72,185.528,15.151,100.02,-0.0020618
16.77,186.028,15.151,100.019,-0.0023368
16.82,186.528,15.151,100.017,-0.0023373
16.87,187.028,15.151,100.016,-0.0027480
16.92,187.528,15.15,100.015,-0.0023367
16.97,188.028,15.15,100.014,-0.0023827
17.02,188.528,15.15,100.012,-0.0025199
17.07,189.028,15.15,100.011,-0.0029325
17.12,189.528,15.15,100.01,-0.0024742
17.17,190.029,15.149,100.009,-0.0028401
17.22,190.529,15.149,100.007,-0.0028401
17.27,191.029,15.149,100.006,-0.0020176
17.32,191.529,15.149,100.005,-0.0027503
17.37,192.029,15.149,100.003,-0.0027503
17.42,192.529,15.148,100.002,-0.0024297
17.47,193.029,15.148,100.001,-0.0023379
17.52,193.529,15.148,100,-0.0023380
17.57,194.029,15.148,99.998,-0.0028865
17.62,194.529,15.148,99.997,-0.0027027
17.67,195.029,15.147,99.996,-0.0029756
17.72,195.53,15.147,99.994,-0.0027010
17.77,196.03,15.147,99.993,-0.0026111
17.82,196.53,15.147,99.992,-0.0030692
17.87,197.03,15.147,99.99,-0.0030689
17.92,197.53,15.146,99.989,-0.0025211
17.97,198.03,15.146,99.988,-0.0025676
18.02,198.53,15.146,99.986,-0.0029781
18.07,199.03,15.146,99.985,-0.0027039
18.12,199.53,15.146,99.984,-0.0028414
18.17,200.03,15.145,99.982,-0.0023835
18.22,200.53,15.145,99.981,-0.0030706
18.27,201.031,15.145,99.979,-0.0029803
18.32,201.531,15.145,99.978,-0.0030714
18.37,202.031,15.145,99.977,-0.0030706
18.42,202.531,15.144,99.975,-0.0029797
18.47,203.031,15.144,99.974,-0.0027956
18.52,203.531,15.144,99.972,-0.0032979
18.57,204.031,15.144,99.971,-0.0025183
18.62,204.531,15.143,99.969,-0.0029770
18.67,205.031,15.143,99.968,-0.0027475
18.72,205.531,15.143,99.967,-0.0031596
18.77,206.031,15.143,99.965,-0.0028388
18.82,206.532,15.143,99.964,-0.0030692
18.87,207.032,15.142,99.962,-0.0027498
18.92,207.532,15.142,99.96,-0.0029350
18.97,208.032,15.142,99.959,-0.0031193
19.02,208.532,15.142,99.958,-0.0033945
19.07,209.032,15.141,99.956,-0.0028904
19.12,209.532,15.141,99.955,-0.0029352
19.17,210.032,15.141,99.953,-0.0028891
19.22,210.532,15.141,99.952,-0.0031172
19.27,211.032,15.141,99.95,-0.0030697
19.32,211.532,15.14,99.949,-0.0030220
19.37,212.033,15.14,99.947,-0.0026540
19.42,212.533,15.14,99.946,-0.0031107
19.47,213.033,15.14,99.944,-0.0028370
19.52,213.533,15.139,99.943,-0.0034799
19.57,214.033,15.139,99.941,-0.0029754
19.62,214.533,15.139,99.939,-0.0029775
19.67,215.033,15.139,99.938,-0.0027490
19.72,215.533,15.138,99.936,-0.0030242
19.77,216.033,15.138,99.935,-0.0027943
19.82,216.533,15.138,99.933,-0.0030706
19.87,217.033,15.138,99.932,-0.0035730
19.92,217.533,15.137,99.93,-0.0034805
19.97,218.034,15.137,99.928,-0.0030212
20.02,218.534,15.137,99.927,-0.0037529
20.07,219.034,15.137,99.925,-0.0035675
20.12,219.534,15.136,99.923,-0.0031602
20.17,220.034,15.136,99.922,-0.0029309
20.22,220.534,15.136,99.92,-0.0031159
20.27,221.034,15.136,99.918,-0.0031622
20.32,221.534,15.135,99.917,-0.0033480
20.37,222.034,15.135,99.915,-0.0036239
20.42,222.534,15.135,99.913,-0.0036239
20.47,223.034,15.135,99.912,-0.0029797
20.52,223.535,15.134,99.91,-0.0033440
20.57,224.035,15.134,99.908,-0.0032055
20.62,224.535,15.134,99.907,-0.0032500
20.67,225.035,15.134,99.905,-0.0034325
20.72,225.535,15.133,99.903,-0.0035695
20.77,226.035,15.133,99.902,-0.0032494
20.82,226.535,15.133,99.9,-0.0031127
20.87,227.035,15.133,99.898,-0.0035701
20.92,227.535,15.132,99.896,-0.0030220
20.97,228.035,15.132,99.895,-0.0031613
21.02,228.535,15.132,99.893,-0.0033904
21.07,229.036,15.132,99.892,-0.0036199
21.12,229.536,15.131,99.89,-0.0031605
21.17,230.036,15.131,99.888,-0.0037996
21.22,230.536,15.131,99.886,-0.0034808
21.27,231.036,15.131,99.885,-0.0035263
21.32,231.536,15.13,99.883,-0.0034341
21.37,232.036,15.13,99.881,-0.0037983
21.42,232.536,15.13,99.879,-0.0036149
21.47,233.036,15.13,99.878,-0.0035234
21.52,233.536,15.129,99.876,-0.0037979
21.57,234.036,15.129,99.874,-0.0037081
21.62,234.537,15.129,99.872,-0.0035256
21.67,235.037,15.128,99.87,-0.0035731
21.72,235.537,15.128,99.868,-0.0038447
21.77,236.037,15.128,99.867,-0.0034799
21.82,236.537,15.128,99.865,-0.0038014
21.87,237.037,15.127,99.863,-0.0038462
21.92,237.537,15.127,99.861,-0.0041220
21.97,238.037,15.127,99.859,-0.0037105
22.02,238.537,15.127,99.858,-0.0034830
22.07,239.037,15.126,99.856,-0.0035289
22.12,239.537,15.126,99.854,-0.0033911
22.17,240.038,15.126,99.852,-0.0037577
22.22,240.538,15.125,99.85,-0.0034384
22.27,241.038,15.125,99.849,-0.0033468
22.32,241.538,15.125,99.847,-0.0037159
22.37,242.038,15.125,99.845,-0.0036232
22.42,242.538,15.124,99.843,-0.0035321
22.47,243.038,15.124,99.841,-0.0037146
22.52,243.538,15.124,99.839,-0.0038063
22.57,244.038,15.123,99.837,-0.0039431
22.62,244.538,15.123,99.836,-0.0037149
22.67,245.038,15.123,99.834,-0.0037591
22.72,245.538,15.123,99.832,-0.0039406
22.77,246.039,15.122,99.83,-0.0037139
22.82,246.539,15.122,99.828,-0.0034388
22.87,247.039,15.122,99.826,-0.0038503
22.92,247.539,15.122,99.824,-0.0034830
22.97,248.039,15.121,99.823,-0.0033920
23.02,248.539,15.121,99.821,-0.0036205
23.07,249.039,15.121,99.819,-0.0039898
23.12,249.539,15.12,99.817,-0.0038066
23.17,250.039,15.12,99.815,-0.0037115
23.22,250.539,15.12,99.813,-0.0042609
23.27,251.039,15.119,99.811,-0.0037574
23.32,251.54,15.119,99.809,-0.0035737
23.37,252.04,15.119,99.807,-0.0037115
23.42,252.54,15.119,99.805,-0.0040331
23.47,253.04,15.118,99.803,-0.0038049
23.52,253.54,15.118,99.801,-0.0034372
23.57,254.04,15.118,99.799,-0.0040796
23.62,254.54,15.117,99.797,-0.0038039
23.67,255.04,15.117,99.795,-0.0037580
23.72,255.54,15.117,99.793,-0.0040342
23.77,256.04,15.116,99.791,-0.0039908
23.82,256.54,15.116,99.789,-0.0036219
23.87,257.041,15.116,99.787,-0.0038025
23.92,257.541,15.116,99.785,-0.0041209
23.97,258.041,15.115,99.783,-0.0038447
24.02,258.541,15.115,99.782,-0.0039820
24.07,259.041,15.115,99.779,-0.0043016
24.12,259.541,15.114,99.777,-0.0038440
24.17,260.041,15.114,99.775,-0.0042125
24.22,260.541,15.114,99.773,-0.0038919
24.27,261.041,15.113,99.771,-0.0038462
24.32,261.541,15.113,99.769,-0.0036630
24.37,262.041,15.113,99.767,-0.0044438
24.42,262.542,15.113,99.765,-0.0041262
24.47,263.042,15.112,99.763,-0.0037581
24.52,263.542,15.112,99.761,-0.0041262
24.57,264.042,15.112,99.759,-0.0040773
24.62,264.542,15.111,99.757,-0.0043522
24.67,265.042,15.111,99.755,-0.0040765
24.72,265.542,15.111,99.753,-0.0043523
24.78,266.042,15.11,99.75,-0.0041705
24.83,266.542,15.11,99.748,-0.0041690
24.88,267.042,15.11,99.746,-0.0041689
24.93,267.542,15.109,99.744,-0.0044896
24.98,268.043,15.109,99.742,-0.0035289
25.03,268.543,15.109,99.74,-0.0034811
25.08,269.043,15.108,99.738,-0.0042125
25.13,269.543,15.108,99.736,-0.0043040
25.18,270.043,15.108,99.734,-0.0038476
25.23,270.543,15.107,99.732,-0.0041209
25.28,271.043,15.107,99.73,-0.0041690
25.33,271.543,15.107,99.728,-0.0038919
25.38,272.043,15.107,99.725,-0.0043072
25.43,272.543,15.106,99.723,-0.0041707
25.48,273.043,15.106,99.721,-0.0039407
25.53,273.543,15.106,99.719,-0.0040338
25.58,274.044,15.105,99.717,-0.0042163
25.63,274.544,15.105,99.715,-0.0040773
25.68,275.044,15.105,99.713,-0.0043080
25.73,275.544,15.104,99.711,-0.0042125
25.78,276.044,15.104,99.708,-0.0041223
25.83,276.544,15.104,99.706,-0.0039871
25.88,277.044,15.103,99.704,-0.0043956
25.93,277.544,15.103,99.702,-0.0044414
25.98,278.044,15.103,99.7,-0.0041224
26.03,278.544,15.102,99.698,-0.0040765
26.08,279.044,15.102,99.695,-0.0047636
26.13,279.545,15.102,99.693,-0.0043538
26.18,280.045,15.101,99.691,-0.0043522
26.23,280.545,15.101,99.689,-0.0043513
26.28,281.045,15.101,99.686,-0.0044872
26.33,281.545,15.1,99.684,-0.0043956
26.38,282.045,15.1,99.682,-0.0044398
26.43,282.545,15.1,99.68,-0.0042568
26.48,283.045,15.099,99.677,-0.0043001
26.53,283.545,15.099,99.675,-0.0042125
26.58,284.045,15.099,99.673,-0.0044439
26.63,284.545,15.098,99.671,-0.0043980
26.68,285.046,15.098,99.668,-0.0043554
26.73,285.546,15.098,99.666,-0.0051807
26.78,286.046,15.097,99.664,-0.0046288
26.83,286.546,15.097,99.661,-0.0046703
26.88,287.046,15.096,99.659,-0.0041690
26.93,287.546,15.096,99.657,-0.0049433
26.98,288.046,15.096,99.654,-0.0044889
27.03,288.546,15.095,99.652,-0.0046270
27.08,289.046,15.095,99.65,-0.0044898
27.13,289.546,15.095,99.648,-0.0047179
27.18,290.046,15.094,99.645,-0.0045346
27.23,290.547,15.094,99.643,-0.0046280
27.28,291.047,15.094,99.641,-0.0045347
27.33,291.547,15.093,99.638,-0.0045830
27.38,292.047,15.093,99.636,-0.0044896
27.43,292.547,15.093,99.634,-0.0049056
27.48,293.047,15.092,99.631,-0.0044438
27.53,293.547,15.092,99.629,-0.0046245
27.58,294.047,15.092,99.627,-0.0043523
27.63,294.547,15.091,99.625,-0.0050366
27.68,295.047,15.091,99.622,-0.0045788
27.73,295.547,15.091,99.62,-0.0044872
27.78,296.048,15.09,99.618,-0.0043498
27.83,296.548,15.09,99.615,-0.0046245
27.88,297.048,15.089,99.613,-0.0045330
27.93,297.548,15.089,99.611,-0.0049891
27.98,298.048,15.089,99.608,-0.0045305
28.03,298.548,15.088,99.606,-0.0046687
28.08,299.048,15.088,99.604,-0.0048491
28.13,299.548,15.088,99.601,-0.0046195
28.18,300.048,15.087,99.599,-0.0045746
28.23,300.548,15.087,99.597,-0.0044374
28.28,301.048,15.087,99.594,-0.0048948
28.33,301.548,15.086,99.592,-0.0046212
28.38,302.049,15.086,99.589,-0.0044389
28.43,302.549,15.086,99.587,-0.0051244
28.48,303.049,15.085,99.585,-0.0046677
28.53,303.549,15.085,99.582,-0.0046644
28.58,304.049,15.084,99.58,-0.0049406
28.63,304.549,15.084,99.578,-0.0047101
28.68,305.049,15.084,99.575,-0.0047567
28.73,305.549,15.083,99.573,-0.0048077
28.78,306.049,15.083,99.57,-0.0050824
28.83,306.549,15.083,99.568,-0.0046737
28.88,307.049,15.082,99.566,-0.0045371
28.93,307.55,15.082,99.563,-0.0046305
28.98,308.05,15.082,99.561,-0.0049954
29.03,308.55,15.081,99.558,-0.0048103
29.08,309.05,15.081,99.556,-0.0049479
29.13,309.55,15.08,99.553,-0.0050366
29.18,310.05,15.08,99.551,-0.0045330
29.23,310.55,15.08,99.548,-0.0049908
29.28,311.05,15.079,99.546,-0.0049424
29.33,311.55,15.079,99.543,-0.0049010
29.38,312.05,15.079,99.541,-0.0047636
29.43,312.55,15.078,99.539,-0.0047636
29.48,313.051,15.078,99.536,-0.0050853
29.53,313.551,15.077,99.534,-0.0048139
29.58,314.051,15.077,99.531,-0.0048616
29.63,314.551,15.077,99.529,-0.0047706
29.68,315.051,15.076,99.526,-0.0047221
29.73,315.551,15.076,99.524,-0.0048606
29.78,316.051,15.076,99.521,-0.0049953
29.83,316.551,15.075,99.519,-0.0049496
29.88,317.051,15.075,99.516,-0.0049478
29.93,317.551,15.074,99.514,-0.0048597
29.98,318.051,15.074,99.511,-0.0051806
30.03,318.552,15.074,99.509,-0.0049496
30.08,319.052,15.073,99.506,-0.0050881
30.13,319.552,15.073,99.504,-0.0052676
30.18,320.052,15.073,99.501,-0.0049908
30.23,320.552,15.072,99.499,-0.0050824
30.28,321.052,15.072,99.496,-0.0051711
30.33,321.552,15.071,99.494,-0.0049908
30.38,322.052,15.071,99.491,-0.0050366
30.43,322.552,15.071,99.489,-0.0051264
30.48,323.052,15.07,99.486,-0.0050824
30.53,323.552,15.07,99.484,-0.0047161
30.58,324.053,15.07,99.481,-0.0050366
30.63,324.553,15.069,99.479,-0.0049908
30.68,325.053,15.069,99.476,-0.0048993
30.73,325.553,15.068,99.474,-0.0047144
30.78,326.053,15.068,99.471,-0.0051300
30.83,326.553,15.068,99.469,-0.0048562
30.88,327.053,15.067,99.466,-0.0049514
30.93,327.553,15.067,99.464,-0.0050413
30.98,328.053,15.067,99.461,-0.0052684
31.03,328.553,15.066,99.459,-0.0050366
31.08,329.053,15.066,99.456,-0.0050339
31.13,329.553,15.065,99.454,-0.0053571
31.18,330.054,15.065,99.451,-0.0049414
31.23,330.554,15.065,99.449,-0.0049424
31.28,331.054,15.064,99.446,-0.0052198
31.33,331.554,15.064,99.443,-0.0052627
31.38,332.054,15.063,99.441,-0.0051721
31.43,332.554,15.063,99.438,-0.0051330
31.48,333.054,15.063,99.436,-0.0054975
31.53,333.554,15.062,99.433,-0.0052704
31.58,334.054,15.062,99.43,-0.0047646
31.63,334.554,15.061,99.428,-0.0055861
31.68,335.054,15.061,99.425,-0.0049881
31.73,335.555,15.061,99.423,-0.0052169
31.78,336.055,15.06,99.42,-0.0052656
31.83,336.555,15.06,99.417,-0.0051282
31.88,337.055,15.059,99.415,-0.0052656
31.93,337.555,15.059,99.412,-0.0052198
31.98,338.055,15.059,99.409,-0.0054029
32.03,338.555,15.058,99.407,-0.0052627
32.08,339.055,15.058,99.404,-0.0052198
32.13,339.555,15.057,99.401,-0.0055403
32.18,340.055,15.057,99.399,-0.0051282
32.23,340.555,15.057,99.396,-0.0051740
32.28,341.056,15.056,99.393,-0.0059066
32.33,341.556,15.056,99.391,-0.0054517
32.38,342.056,15.055,99.388,-0.0056796
32.43,342.556,15.055,99.385,-0.0056319
32.48,343.056,15.055,99.382,-0.0057692
32.53,343.556,15.054,99.38,-0.0055373
32.58,344.056,15.054,99.377,-0.0057661
32.63,344.556,15.053,99.374,-0.0060876
32.68,345.056,15.053,99.371,-0.0055372
32.73,345.556,15.052,99.368,-0.0055383
32.78,346.056,15.052,99.366,-0.0058608
32.83,346.557,15.052,99.363,-0.0056319
32.88,347.057,15.051,99.36,-0.0052656
32.93,347.557,15.051,99.357,-0.0055882
32.98,348.057,15.05,99.355,-0.0056339
33.03,348.557,15.05,99.352,-0.0055454
33.08,349.057,15.049,99.349,-0.0055434
33.13,349.557,15.049,99.346,-0.0060897
33.18,350.057,15.049,99.343,-0.0058150
33.23,350.557,15.048,99.34,-0.0054487
33.28,351.057,15.048,99.338,-0.0056777
33.33,351.557,15.047,99.335,-0.0054914
33.38,352.058,15.047,99.332,-0.0054915
33.43,352.558,15.046,99.329,-0.0056319
33.48,353.058,15.046,99.326,-0.0055384
33.53,353.558,15.046,99.323,-0.0059066
33.58,354.058,15.045,99.32,-0.0057234
33.63,354.558,15.045,99.317,-0.0059524
33.68,355.058,15.044,99.314,-0.0055881
33.73,355.558,15.044,99.311,-0.0059524
33.78,356.058,15.043,99.308,-0.0062294
33.83,356.558,15.043,99.305,-0.0059546
33.88,357.058,15.042,99.302,-0.0059033
33.93,357.558,15.042,99.299,-0.0061355
33.98,358.059,15.042,99.296,-0.0064983
34.03,358.559,15.041,99.293,-0.0063187
34.08,359.059,15.041,99.29,-0.0061333
34.13,359.559,15.04,99.287,-0.0062694
34.18,360.059,15.04,99.284,-0.0065886
34.23,360.559,15.039,99.281,-0.0062729
34.28,361.059,15.039,99.277,-0.0067271
34.33,361.559,15.038,99.274,-0.0070462
34.38,362.059,15.038,99.271,-0.0067271
34.43,362.559,15.037,99.267,-0.0069114
34.48,363.059,15.037,99.264,-0.0068174
34.53,363.56,15.036,99.26,-0.0071376
34.58,364.06,15.036,99.257,-0.0070971
34.63,364.56,15.035,99.253,-0.0065440
34.68,365.06,15.034,99.25,-0.0071389
34.73,365.56,15.034,99.246,-0.0070971
34.78,366.06,15.033,99.243,-0.0069177
34.83,366.56,15.033,99.239,-0.0073260
34.88,367.06,15.032,99.235,-0.0071886
34.93,367.56,15.032,99.232,-0.0073745
34.98,368.06,15.031,99.228,-0.0073718
35.03,368.56,15.031,99.224,-0.0075550
35.08,369.061,15.03,99.221,-0.0075092
35.13,369.561,15.029,99.217,-0.0076465
35.18,370.061,15.029,99.213,-0.0077381
35.23,370.561,15.028,99.209,-0.0079212
35.28,371.061,15.028,99.205,-0.0081532
35.33,371.561,15.027,99.201,-0.0079212
35.38,372.061,15.026,99.197,-0.0080557
35.43,372.561,15.026,99.193,-0.0083730
35.48,373.061,15.025,99.188,-0.0083761
35.53,373.561,15.025,99.184,-0.0085165
35.58,374.061,15.024,99.18,-0.0087944
35.63,374.562,15.023,99.176,-0.0087454
35.68,375.062,15.023,99.171,-0.0090170
35.73,375.562,15.022,99.167,-0.0087454
35.78,376.062,15.021,99.162,-0.0091982
35.83,376.562,15.02,99.157,-0.0096100
35.88,377.062,15.02,99.153,-0.0095186
35.93,377.562,15.019,99.148,-0.0097932
35.98,378.062,15.018,99.143,-0.0096559
36.03,378.562,15.018,99.138,-0.0104339
36.08,379.062,15.017,99.133,-0.0100696
36.13,379.562,15.016,99.128,-0.0103881
36.18,380.063,15.015,99.123,-0.0106627
36.23,380.563,15.014,99.117,-0.0106627
36.28,381.063,15.014,99.112,-0.0109392
36.33,381.563,15.013,99.107,-0.0111661
36.38,382.063,15.012,99.101,-0.0111661
36.43,382.563,15.011,99.095,-0.0116651
36.48,383.063,15.01,99.09,-0.0117109
36.53,383.563,15.009,99.084,-0.0119461
36.58,384.063,15.008,99.078,-0.0121750
36.63,384.563,15.007,99.071,-0.0123558
36.68,385.063,15.006,99.065,-0.0127631
36.73,385.563,15.006,99.059,-0.0127677
36.78,386.064,15.005,99.052,-0.0131362
36.83,386.564,15.004,99.046,-0.0134567
36.88,387.064,15.002,99.039,-0.0136830
36.93,387.564,15.001,99.032,-0.0140490
36.98,388.064,15,99.025,-0.0142753
37.03,388.564,14.999,99.017,-0.0146925
37.08,389.064,14.998,99.01,-0.0149725
37.13,389.564,14.997,99.002,-0.0153388
37.18,390.064,14.996,98.995,-0.0155678
37.23,390.564,14.995,98.987,-0.0158883
37.28,391.064,14.993,98.978,-0.0165384
37.33,391.565,14.992,98.97,-0.0167582
37.38,392.065,14.991,98.962,-0.0169872
37.43,392.565,14.989,98.953,-0.0173929
37.48,393.065,14.988,98.944,-0.0183083
37.53,393.565,14.987,98.935,-0.0186287
37.58,394.065,14.985,98.926,-0.0189034
37.63,394.565,14.984,98.916,-0.0194597
37.68,395.065,14.982,98.906,-0.0197694
37.73,395.565,14.981,98.896,-0.0199836
37.78,396.065,14.979,98.886,-0.0205855
37.83,396.565,14.978,98.876,-0.0213252
37.88,397.066,14.976,98.865,-0.0214744
37.93,397.566,14.975,98.854,-0.0217949
37.98,398.066,14.973,98.843,-0.0224899
38.03,398.566,14.971,98.832,-0.0227106
38.08,399.066,14.969,98.821,-0.0232473
38.13,399.566,14.968,98.809,-0.0238095
38.18,400.066,14.966,98.797,-0.0244182
38.23,400.566,14.964,98.785,-0.0247711
38.28,401.066,14.962,98.773,-0.0252747
38.33,401.566,14.96,98.76,-0.0262001
38.38,402.066,14.958,98.747,-0.0259300
38.43,402.567,14.956,98.734,-0.0268822
38.48,403.067,14.954,98.72,-0.0278388
38.53,403.567,14.952,98.706,-0.0284341
38.58,404.067,14.95,98.692,-0.0292582
38.63,404.567,14.948,98.677,-0.0297455
38.68,405.067,14.945,98.662,-0.0310326
38.73,405.567,14.943,98.646,-0.0318390
38.78,406.067,14.941,98.63,-0.0322684
38.83,406.567,14.938,98.614,-0.0332571
38.88,407.067,14.936,98.597,-0.0341845
38.93,407.567,14.933,98.579,-0.0350082
38.98,408.068,14.93,98.562,-0.0355769
39.03,408.568,14.927,98.544,-0.0374862
39.08,409.068,14.925,98.525,-0.0378205
39.13,409.568,14.922,98.506,-0.0389408
39.18,410.068,14.919,98.486,-0.0400862
39.23,410.568,14.916,98.465,-0.0413231
39.28,411.068,14.912,98.444,-0.0425064
39.33,411.568,14.909,98.423,-0.0436355
39.38,412.068,14.906,98.401,-0.0447262
39.43,412.568,14.902,98.378,-0.0459707
39.48,413.068,14.899,98.355,-0.0470438
39.53,413.568,14.895,98.331,-0.0483074
39.58,414.069,14.892,98.306,-0.0497073
39.63,414.569,14.888,98.281,-0.0508683
39.68,415.069,14.884,98.255,-0.0521024
39.73,415.569,14.88,98.228,-0.0536824
39.78,416.069,14.876,98.201,-0.0553980
39.83,416.569,14.871,98.173,-0.0574565
39.88,417.069,14.867,98.144,-0.0589877
39.93,417.569,14.862,98.113,-0.0614011
39.98,418.069,14.858,98.082,-0.0637363
40.03,418.569,14.853,98.05,-0.0659125
40.08,419.069,14.848,98.016,-0.0679945
40.13,419.57,14.842,97.981,-0.0706301
40.18,420.07,14.837,97.944,-0.0805403
40.23,420.57,14.83,97.903,-0.0842023
40.28,421.07,14.824,97.859,-0.0929961
40.33,421.57,14.817,97.813,-0.0947504
40.38,422.07,14.809,97.763,-0.1041100
40.43,422.57,14.801,97.711,-0.1078820
40.48,423.07,14.793,97.656,-0.1110750
40.53,423.57,14.784,97.598,-0.1156000
40.58,424.07,14.775,97.537,-0.1204230
40.63,424.57,14.766,97.475,-0.1260070
40.68,425.071,14.756,97.411,-0.1314540
40.73,425.571,14.746,97.345,-0.1353940
40.78,426.071,14.735,97.274,-0.1423400
40.83,426.571,14.724,97.202,-0.1404760
40.88,427.071,14.713,97.128,-0.1497160
40.93,427.571,14.702,97.052,-0.1497250
40.98,428.071,14.69,96.976,-0.1554370
41.03,428.571,14.678,96.895,-0.1617820
41.08,429.071,14.665,96.811,-0.1690020
41.13,429.571,14.652,96.725,-0.1699820
41.18,430.071,14.639,96.636,-0.1758620
41.23,430.572,14.625,96.545,-0.1826010
41.28,431.072,14.61,96.45,-0.1889880
41.33,431.572,14.596,96.353,-0.1943640
41.38,432.072,14.58,96.251,-0.2029100
41.43,432.572,14.565,96.148,-0.2109790
41.48,433.072,14.548,96.04,-0.2243730
41.53,433.572,14.531,95.926,-0.2245310
41.58,434.072,14.513,95.809,-0.2326470
41.63,434.572,14.495,95.687,-0.2509620
41.68,435.072,14.475,95.556,-0.2680720
41.73,435.572,14.454,95.415,-0.2881070
41.78,436.073,14.431,95.269,-0.3160980
41.83,436.573,14.409,95.121,-0.2901800
41.88,437.073,14.388,94.979,-0.2729090
41.93,437.573,14.365,94.833,-0.3035030
41.98,438.073,14.341,94.673,-0.3429890
42.03,438.573,14.315,94.499,-0.3543040
42.08,439.073,14.288,94.322,-0.3600730
42.13,439.573,14.26,94.136,-0.3831960
42.18,440.073,14.23,93.941,-0.3920510
42.23,440.573,14.2,93.744,-0.4037930
42.28,441.073,14.171,93.548,-0.3940130
42.33,441.573,14.14,93.342,-0.4432510
42.38,442.074,14.106,93.12,-0.4300130
42.43,442.574,14.073,92.901,-0.4384160
42.48,443.074,14.039,92.678,-0.4673000
42.53,443.574,14.004,92.444,-0.4749610
42.58,444.074,13.965,92.193,-0.5357920
42.63,444.574,13.924,91.92,-0.5546030
42.68,445.074,13.882,91.643,-0.5638990
42.73,445.574,13.839,91.36,-0.5903170
42.78,446.074,13.793,91.052,-0.6171870
42.83,446.574,13.746,90.744,-0.6605750
42.88,447.074,13.697,90.418,-0.6973460
42.93,447.575,13.645,90.077,-0.7011590
42.98,448.075,13.591,89.723,-0.7683950
43.03,448.575,13.533,89.338,-0.7882050
43.08,449.075,13.478,88.976,-0.7409800
43.13,449.575,13.415,88.557,-0.8414220
43.18,450.075,13.353,88.15,-0.8407970
43.23,450.575,13.285,87.704,-0.9402190
43.28,451.075,13.216,87.246,-0.9159930
43.33,451.575,13.144,86.769,-0.9473900
43.38,452.075,13.067,86.263,-1.00142
43.43,452.575,12.988,85.741,-1.0563
43.48,453.076,12.909,85.215,-1.11356
43.53,453.576,12.819,84.627,-1.18459
43.58,454.076,12.733,84.056,-1.1776
43.63,454.576,12.641,83.451,-1.22795
43.68,455.076,12.544,82.807,-1.2428
43.73,455.576,12.44,82.125,-1.41977
43.78,456.076,12.335,81.431,-1.3539
43.83,456.576,12.226,80.711,-1.46341
43.88,457.076,12.114,79.969,-1.49619
43.93,457.576,11.996,79.194,-1.55552
43.98,458.076,11.874,78.387,-1.67263
44.03,458.577,11.742,77.512,-1.70539
44.08,459.077,11.608,76.633,-1.8061
44.13,459.577,11.465,75.684,-1.88149
44.18,460.077,11.314,74.686,-1.97344
44.23,460.577,11.156,73.645,-2.08463
44.28,461.077,10.987,72.53,-2.223
44.33,461.577,10.814,71.391,-2.5291
44.38,462.077,10.61,70.042,-2.85593
44.43,462.577,10.405,68.69,-2.39701
44.48,463.077,10.216,67.443,-2.51827
44.53,463.577,10.022,66.158,-2.53883
44.58,464.078,9.824,64.854,-2.71063
44.63,464.578,9.618,63.496,-2.73609
44.68,465.078,9.402,62.066,-3.03176
44.73,465.578,9.167,60.516,-3.38191
44.78,466.078,8.957,59.13,-2.76047
44.83,466.578,8.737,57.678,-3.01748
44.88,467.078,8.518,56.233,-2.92715
44.93,467.578,8.28,54.663,-3.21832
44.98,468.078,8.034,53.035,-3.29072
45.03,468.578,7.768,51.281,-4.47139
45.08,469.078,7.521,49.648,-3.22491
45.13,469.578,7.272,48.004,-3.39554
45.18,470.079,7.028,46.395,-3.24658
45.23,470.579,6.776,44.734,-3.36483
45.28,471.079,6.523,43.061,-3.48798
45.33,471.579,6.257,41.303,-3.4021
45.38,472.079,5.987,39.525,-3.56962
45.43,472.579,5.723,37.78,-3.66658
45.48,473.079,5.451,35.987,-3.65145
45.53,473.579,5.176,34.169,-3.68172
45.58,474.079,4.898,32.332,-3.64386
45.63,474.579,4.623,30.522,-3.55555
45.68,475.079,4.346,28.693,-3.59857
45.73,475.58,4.07,26.867,-3.67435
45.78,476.08,3.794,25.047,-3.53975
45.83,476.58,3.524,23.262,-3.53757
45.88,477.08,3.255,21.488,-3.44216
45.93,477.58,2.989,19.731,-3.41124
45.98,478.08,2.732,18.037,-3.37596
46.03,478.58,2.481,16.38,-3.17103
46.08,479.08,2.25,14.854,-3.08576
46.13,479.58,2.017,13.313,-3.00473
46.18,480.08,1.79,11.814,-2.8111
46.23,480.58,1.577,10.408,-2.70012
46.28,481.081,1.388,9.163,-2.41787
46.33,481.581,1.206,7.959,-2.30685
46.38,482.081,1.039,6.861,-2.03285
46.43,482.581,0.8940000,5.899,-1.8231
46.48,483.081,0.7590000,5.011,-1.64508
46.53,483.581,0.6450000,4.26,-1.40077
46.58,484.081,0.5440000,3.594,-1.1907
46.62,484.581,0.4630000,3.054,-1.0122
46.67,485.081,0.3930000,2.594,-0.8161810
46.72,485.581,0.3380000,2.231,-0.6521170
46.77,486.081,0.2960000,1.957,-0.5051870
46.82,486.582,0.2640000,1.743,-0.3628010
46.87,487.082,0.2410000,1.588,-0.2619530
46.92,487.582,0.2250000,1.482,-0.1690790
46.97,488.082,0.2140000,1.414,-0.1091640
47.02,488.582,0.2080000,1.372,-0.0633653
47.07,489.082,0.2040000,1.348,-0.0345366
47.12,489.582,0.2020000,1.331,-0.0356794
47.18,490.082,0.1990000,1.313,-0.0325802
47.23,490.582,0.1970000,1.298,-0.0281226
47.28,491.082,0.1950000,1.285,-0.0233780
47.33,491.582,0.1930000,1.275,-0.0190035
47.38,492.083,0.1920000,1.267,-0.0151191
47.43,492.583,0.1910000,1.26,-0.0121156
47.48,493.083,0.1900000,1.254,-0.0095387
47.53,493.583,0.1890000,1.25,-0.0076672
47.58,494.083,0.1890000,1.247,-0.0060398
47.63,494.583,0.1880000,1.244,-0.0048011
47.68,495.083,0.1880000,1.242,-0.0036705
47.73,495.583,0.1880000,1.241,-0.0032078
47.78,496.083,0.1880000,1.239,-0.0026309
47.83,496.583,0.1880000,1.238,-0.0019770
47.88,497.083,0.1870000,1.237,-0.0015212
47.93,497.583,0.1870000,1.236,-0.0013707
47.98,498.084,0.1870000,1.236,-0.0008778
48.03,498.584,0.1870000,1.235,-0.0012100
48.08,499.084,0.1870000,1.235,-0.0008753
48.13,499.584,0.1870000,1.235,-0.0005388
48.18,500.084,0.1870000,1.234,-0.0006141
48.23,500.584,0.1870000,1.234,-0.0005635
48.28,501.084,0.1870000,1.234,-0.0008340
48.33,501.584,0.1870000,1.234,-0.0003191
48.38,502.084,0.1870000,1.234,-0.0002833
48.43,502.584,0.1870000,1.233,-0.0000781
48.48,503.084,0.1870000,1.233,-0.0003587
48.53,503.585,0.1870000,1.233,-0.0003325
48.58,504.085,0.1870000,1.233,-0.0000805
48.63,504.585,0.1870000,1.233,-0.0001932
48.68,505.085,0.1870000,1.233,-0.0001665
48.73,505.585,0.1870000,1.233,-0.0001756
48.78,506.085,0.1870000,1.233,-0.0005765
48.83,506.585,0.1870000,1.233,0.0000100
48.88,507.085,0.1870000,1.232,-0.0002580
48.93,507.585,0.1870000,1.232,-0.0001253
48.98,508.085,0.1870000,1.232,-0.0003008
49.03,508.585,0.1870000,1.232,-0.0000344
49.08,509.086,0.1870000,1.232,0.0000558
49.13,509.586,0.1870000,1.232,-0.0002545
49.18,510.086,0.1870000,1.232,-0.0002523
49.23,510.586,0.1870000,1.232,0.0000285
49.28,511.086,0.1870000,1.232,-0.0003503
49.33,511.586,0.1870000,1.232,0.0000651
49.38,512.086,0.1870000,1.232,-0.0000937
49.43,512.586,0.1870000,1.232,-0.0000715
49.48,513.086,0.1870000,1.232,-0.0001925
49.53,513.586,0.1870000,1.232,-0.0002089
49.58,514.086,0.1870000,1.232,-0.0001138
49.63,514.587,0.1870000,1.232,-0.0000973
49.68,515.087,0.1870000,1.231,-0.0002554
49.73,515.587,0.1870000,1.231,-0.0002812
49.78,516.087,0.1870000,1.231,-0.0002411
49.83,516.587,0.1860000,1.231,-0.0003842
49.88,517.087,0.1860000,1.231,-0.0001231
49.93,517.587,0.1860000,1.231,-0.0002776
49.98,518.087,0.1860000,1.231,0.0000021
50.03,518.587,0.1860000,1.231,-0.0002573
50.08,519.087,0.1860000,1.231,-0.0001508
50.13,519.587,0.1860000,1.231,-0.0002157
50.18,520.088,0.1860000,1.231,-0.0004127
50.23,520.588,0.1860000,1.231,0.0000208
50.28,521.088,0.1860000,1.231,-0.0001851
50.33,521.588,0.1860000,1.23,-0.0000886
50.38,522.088,0.1860000,1.23,-0.0002230
50.43,522.588,0.1860000,1.23,-0.0004106
50.48,523.088,0.1860000,1.23,0.0000880
50.53,523.588,0.1860000,1.23,-0.0001380
50.58,524.088,0.1860000,1.23,-0.0005874
50.63,524.588,0.1860000,1.23,0.0001973
50.68,525.088,0.1860000,1.23,-0.0002328
50.73,525.588,0.1860000,1.23,-0.0001935
50.78,526.089,0.1860000,1.23,-0.0000507
50.83,526.589,0.1860000,1.23,0.0001186
50.88,527.089,0.1860000,1.23,-0.0003359
50.93,527.589,0.1860000,1.23,0.0001114
50.98,528.089,0.1860000,1.23,-0.0001637
51.03,528.589,0.1860000,1.23,0.0001017
51.08,529.089,0.1860000,1.229,0.0000100
51.13,529.589,0.1860000,1.229,-0.0003921
51.18,530.089,0.1860000,1.229,-0.0002948
51.23,530.589,0.1860000,1.229,0.0000866
51.28,531.089,0.1860000,1.229,-0.0003724
51.33,531.59,0.1860000,1.229,-0.0003738
51.38,532.09,0.1860000,1.229,0.0000436
51.43,532.59,0.1860000,1.229,-0.0004692
51.48,533.09,0.1860000,1.229,-0.0003437
51.53,533.59,0.1860000,1.229,0.0000143
51.58,534.09,0.1860000,1.229,-0.0003009
51.63,534.59,0.1860000,1.229,-0.0001989
51.68,535.09,0.1860000,1.229,-0.0000944
51.73,535.59,0.1860000,1.229,-0.0004424
51.78,536.09,0.1860000,1.228,0.0000880
51.83,536.59,0.1860000,1.228,-0.0003712
51.88,537.091,0.1860000,1.228,-0.0002812
51.93,537.591,0.1860000,1.228,-0.0000365
51.98,538.091,0.1860000,1.228,-0.0001788
52.03,538.591,0.1860000,1.228,-0.0000193
52.08,539.091,0.1860000,1.228,-0.0000928
52.13,539.591,0.1860000,1.228,0.0000721
52.18,540.091,0.1860000,1.228,-0.0002010
52.23,540.591,0.1860000,1.228,-0.0002237
52.28,541.091,0.1860000,1.228,-0.0004192
52.33,541.591,0.1860000,1.227,-0.0000365
52.38,542.091,0.1860000,1.227,-0.0000356
52.43,542.592,0.1860000,1.227,-0.0002308
52.48,543.092,0.1860000,1.227,0.0000808
52.53,543.592,0.1860000,1.227,-0.0000692
52.58,544.092,0.1860000,1.227,-0.0001431
52.63,544.592,0.1860000,1.227,-0.0002107
52.68,545.092,0.1860000,1.227,-0.0001222
52.73,545.592,0.1860000,1.227,-0.0000715
52.78,546.092,0.1860000,1.227,-0.0005712
52.83,546.592,0.1860000,1.227,-0.0004615
52.88,547.092,0.1860000,1.227,-0.0003298
52.93,547.592,0.1860000,1.227,-0.0005058
52.98,548.093,0.1860000,1.226,-0.0003370
53.03,548.593,0.1860000,1.226,-0.0002390
53.08,549.093,0.1860000,1.226,-0.0003828
53.13,549.593,0.1860000,1.226,-0.0002710
53.18,550.093,0.1860000,1.226,-0.0003632
53.23,550.593,0.1860000,1.226,-0.0004492
53.28,551.093,0.1860000,1.225,-0.0002787
53.33,551.593,0.1860000,1.225,-0.0003288
53.38,552.093,0.1860000,1.225,-0.0004693
53.43,552.593,0.1860000,1.225,-0.0004735
53.48,553.093,0.1860000,1.225,-0.0001657
53.53,553.593,0.1860000,1.225,-0.0003942
53.58,554.094,0.1860000,1.225,-0.0001180
53.63,554.594,0.1850000,1.224,-0.0005747
53.68,555.094,0.1850000,1.224,-0.0003582
53.73,555.594,0.1850000,1.224,-0.0002130
53.78,556.094,0.1850000,1.224,-0.0005072
53.83,556.594,0.1850000,1.224,-0.0002158
53.88,557.094,0.1850000,1.223,-0.0003285
53.93,557.594,0.1850000,1.223,-0.0004006
53.98,558.094,0.1850000,1.223,-0.0004302
54.03,558.594,0.1850000,1.223,-0.0003953
54.08,559.094,0.1850000,1.223,-0.0005245
54.13,559.595,0.1850000,1.222,-0.0006730
54.18,560.095,0.1850000,1.222,-0.0006479
54.23,560.595,0.1850000,1.222,-0.0001408
54.28,561.095,0.1850000,1.222,-0.0006172
54.33,561.595,0.1850000,1.221,-0.0005977
54.38,562.095,0.1850000,1.221,-0.0004817
54.43,562.595,0.1850000,1.221,-0.0006147
54.48,563.095,0.1850000,1.221,-0.0004450
54.53,563.595,0.1850000,1.22,-0.0005645
54.58,564.095,0.1850000,1.22,-0.0004846
54.63,564.595,0.1850000,1.22,-0.0006063
54.68,565.096,0.1850000,1.22,-0.0004227
54.73,565.596,0.1850000,1.219,-0.0005237
54.78,566.096,0.1850000,1.219,-0.0006804
54.83,566.596,0.1850000,1.219,-0.0006532
54.88,567.096,0.1850000,1.218,-0.0006124
54.93,567.596,0.1850000,1.218,-0.0007061
54.98,568.096,0.1840000,1.218,-0.0006796
55.03,568.596,0.1840000,1.217,-0.0007461
55.08,569.096,0.1840000,1.217,-0.0005852
55.13,569.596,0.1840000,1.217,-0.0009419
55.18,570.096,0.1840000,1.216,-0.0008915
55.23,570.597,0.1840000,1.216,-0.0005324
55.28,571.097,0.1840000,1.216,-0.0007063
55.33,571.597,0.1840000,1.215,-0.0007740
55.38,572.097,0.1840000,1.215,-0.0005825
55.43,572.597,0.1840000,1.214,-0.0005454
55.48,573.097,0.1840000,1.214,-0.0008958
55.53,573.597,0.1840000,1.214,-0.0008929
55.58,574.097,0.1840000,1.213,-0.0010038
55.63,574.597,0.1840000,1.213,-0.0008049
55.68,575.097,0.1840000,1.212,-0.0008206
55.73,575.597,0.1840000,1.212,-0.0009844
55.78,576.098,0.1840000,1.212,-0.0008587
55.83,576.598,0.1830000,1.211,-0.0007197
55.88,577.098,0.1830000,1.211,-0.0010691
55.93,577.598,0.1830000,1.21,-0.0010949
55.98,578.098,0.1830000,1.21,-0.0009523
56.03,578.598,0.1830000,1.209,-0.0010751
56.08,579.098,0.1830000,1.209,-0.0009094
56.13,579.598,0.1830000,1.208,-0.0009709
56.18,580.098,0.1830000,1.208,-0.0009308
56.23,580.598,0.1830000,1.207,-0.0011552
56.28,581.098,0.1830000,1.207,-0.0009433
56.33,581.598,0.1830000,1.206,-0.0012384
56.38,582.099,0.1830000,1.206,-0.0010148
56.43,582.599,0.1830000,1.205,-0.0012234
56.48,583.099,0.1820000,1.205,-0.0013851
56.53,583.599,0.1820000,1.204,-0.0007083
56.58,584.099,0.1820000,1.204,-0.0009057
56.63,584.599,0.1820000,1.203,-0.0007890
56.68,585.099,0.1820000,1.203,-0.0010288
56.73,585.599,0.1820000,1.202,-0.0010127
56.78,586.099,0.1820000,1.202,-0.0005927
56.83,586.599,0.1820000,1.201,-0.0008108
56.88,587.099,0.1820000,1.201,-0.0008925
56.93,587.6,0.1820000,1.2,-0.0007211
56.98,588.1,0.1820000,1.2,-0.0009916
57.03,588.6,0.1820000,1.199,-0.0005984
57.08,589.1,0.1820000,1.199,-0.0007854
57.13,589.6,0.1820000,1.199,-0.0011430
57.17,590,0.1810000,1.198,-0.0010724