File: R/rHDPE_App/app/www/Output/TGA/Condensed_Data/Resin11_0__1.csv
0.5600000,30,12.97,100.013,0.0053734
0.6500000,30.5001,12.97,100.017,-0.0008457
0.7200000,31.0002,12.97,100.02,-0.0010987
0.7900000,31.5003,12.971,100.022,0.0076774
0.8500000,32.0004,12.971,100.024,0.0009331
0.9200000,32.5004,12.971,100.025,-0.0016978
0.9800000,33.0005,12.971,100.026,-0.0009950
1.04,33.5006,12.971,100.028,0.0005421
1.09,34.0007,12.972,100.029,0.0051292
1.15,34.5008,12.972,100.029,0.0045395
1.21,35.0009,12.972,100.03,0.0000524
1.27,35.501,12.972,100.031,0.0013450
1.32,36.0011,12.972,100.032,0.0023094
1.38,36.5012,12.972,100.033,-0.0010191
1.43,37.0013,12.972,100.033,0.0025817
1.49,37.5013,12.972,100.034,0.0000503
1.54,38.0014,12.972,100.035,0.0035063
1.6,38.5015,12.972,100.035,-0.0007979
1.66,39.0016,12.972,100.036,0.0026303
1.71,39.5017,12.973,100.037,0.0012859
1.76,40.0018,12.973,100.037,0.0002463
1.82,40.5019,12.973,100.038,0.0016695
1.87,41.002,12.973,100.039,0.0002447
1.92,41.5021,12.973,100.039,0.0020510
1.98,42.0021,12.973,100.04,0.0012181
2.03,42.5022,12.973,100.04,0.0003891
2.08,43.0023,12.973,100.041,0.0026229
2.14,43.5024,12.973,100.042,0.0015044
2.19,44.0025,12.973,100.042,0.0003874
2.24,44.5026,12.973,100.043,0.0021768
2.29,45.0027,12.973,100.044,0.0007247
2.35,45.5028,12.974,100.044,0.0002894
2.4,46.0029,12.974,100.045,0.0016849
2.45,46.5029,12.974,100.045,0.0013448
2.51,47.003,12.974,100.046,0.0005276
2.56,47.5031,12.974,100.046,0.0009574
2.61,48.0032,12.974,100.047,0.0021504
2.66,48.5033,12.974,100.048,0.0012880
2.71,49.0034,12.974,100.049,0.0009522
2.76,49.5035,12.974,100.049,0.0011414
2.82,50.0036,12.974,100.05,0.0016622
2.87,50.5037,12.974,100.05,0.0014704
2.92,51.0038,12.974,100.051,0.0009471
2.97,51.5038,12.974,100.051,0.0009936
3.03,52.0039,12.975,100.052,0.0016069
3.08,52.504,12.975,100.053,0.0014152
3.13,53.0041,12.975,100.053,0.0012256
3.18,53.5042,12.975,100.054,0.0006118
3.23,54.0043,12.975,100.054,0.0011281
3.28,54.5044,12.975,100.055,0.0012675
3.33,55.0045,12.975,100.056,0.0008910
3.38,55.5046,12.975,100.056,0.0008435
3.44,56.0046,12.975,100.057,0.0012168
3.49,56.5047,12.975,100.057,0.0011221
3.54,57.0048,12.975,100.058,0.0010279
3.59,57.5049,12.975,100.058,0.0010726
3.64,58.005,12.975,100.059,0.0010720
3.69,58.5051,12.976,100.059,0.0010244
3.74,59.0052,12.976,100.06,0.0008377
3.79,59.5053,12.976,100.061,0.0011624
3.84,60.0054,12.976,100.061,0.0012086
3.89,60.5054,12.976,100.061,0.0011614
3.94,61.0055,12.976,100.062,0.0013928
3.99,61.5056,12.976,100.062,0.0011137
4.04,62.0057,12.976,100.063,0.0009738
4.1,62.5058,12.976,100.063,0.0012977
4.15,63.0059,12.976,100.064,0.0010654
4.2,63.506,12.976,100.065,0.0011574
4.25,64.0061,12.976,100.065,0.0007865
4.3,64.5062,12.976,100.066,0.0008789
4.35,65.0063,12.976,100.066,0.0006011
4.4,65.5063,12.976,100.066,0.0010633
4.45,66.0064,12.976,100.067,0.0008779
4.5,66.5065,12.977,100.067,0.0007385
4.55,67.0066,12.977,100.068,0.0010609
4.6,67.5067,12.977,100.068,0.0005071
4.65,68.0068,12.977,100.068,0.0006916
4.7,68.5069,12.977,100.069,0.0009682
4.75,69.007,12.977,100.069,0.0006904
4.8,69.5071,12.977,100.07,0.0011045
4.85,70.0071,12.977,100.07,0.0006898
4.9,70.5072,12.977,100.07,0.0006898
4.95,71.0073,12.977,100.071,0.0009195
5,71.5074,12.977,100.071,0.0007819
5.05,72.0075,12.977,100.072,0.0006436
5.1,72.5076,12.977,100.072,0.0010575
5.15,73.0077,12.977,100.073,0.0011494
5.2,73.5078,12.977,100.073,0.0008275
5.25,74.0079,12.977,100.073,0.0007810
5.3,74.5079,12.977,100.074,0.0010102
5.35,75.008,12.977,100.074,0.0005507
5.4,75.5081,12.977,100.075,0.0004590
5.45,76.0082,12.978,100.075,0.0005507
5.5,76.5083,12.978,100.075,0.0004587
5.55,77.0084,12.978,100.075,0.0008714
5.6,77.5085,12.978,100.076,0.0008252
5.65,78.0086,12.978,100.076,0.0005961
5.7,78.5087,12.978,100.076,0.0005956
5.75,79.0088,12.978,100.077,0.0004578
5.8,79.5088,12.978,100.077,0.0005038
5.85,80.0089,12.978,100.077,0.0005496
5.9,80.509,12.978,100.077,0.0002291
5.95,81.0091,12.978,100.078,0.0003206
6,81.5092,12.978,100.078,0.0003664
6.05,82.0093,12.978,100.078,0.0004581
6.1,82.5094,12.978,100.078,0.0005954
6.15,83.0095,12.978,100.079,0.0003205
6.2,83.5096,12.978,100.079,0.0002746
6.25,84.0096,12.978,100.079,0.0004577
6.3,84.5097,12.978,100.079,0.0006866
6.35,85.0098,12.978,100.08,0.0003662
6.4,85.5099,12.978,100.08,0.0004577
6.46,86.01,12.978,100.08,0.0006864
6.51,86.5101,12.978,100.08,0.0001829
6.56,87.0102,12.978,100.08,0.0003203
6.61,87.5103,12.978,100.081,0.0003659
6.66,88.0104,12.978,100.081,0.0004575
6.71,88.5104,12.978,100.081,0.0005033
6.76,89.0105,12.978,100.081,0.0001373
6.81,89.5106,12.978,100.081,0.0005949
6.86,90.0107,12.978,100.081,0.0006405
6.91,90.5108,12.978,100.081,0.0005033
6.96,91.0109,12.978,100.082,-0.0000915
7.01,91.511,12.978,100.082,0.0001829
7.06,92.0111,12.978,100.082,-0.0000457
7.11,92.5112,12.978,100.082,0.0000000
7.15,93.0113,12.978,100.082,0.0001372
7.2,93.5113,12.978,100.082,0.0000915
7.25,94.0114,12.978,100.082,0.0001371
7.3,94.5115,12.978,100.082,0.0000914
7.35,95.0116,12.978,100.082,-0.0001372
7.4,95.5117,12.978,100.082,0.0000000
7.45,96.0118,12.978,100.082,0.0004118
7.5,96.5119,12.978,100.082,0.0000915
7.55,97.012,12.978,100.082,-0.0003202
7.6,97.5121,12.978,100.082,-0.0000915
7.65,98.0121,12.978,100.082,0.0004117
7.7,98.5122,12.978,100.082,0.0002744
7.75,99.0123,12.978,100.082,-0.0000915
7.8,99.5124,12.978,100.082,-0.0005489
7.85,100.013,12.978,100.082,-0.0000458
7.9,100.513,12.978,100.082,0.0001830
7.95,101.013,12.978,100.082,0.0002287
8,101.513,12.978,100.082,0.0001829
8.05,102.013,12.978,100.082,-0.0001371
8.1,102.513,12.978,100.082,0.0001829
8.15,103.013,12.978,100.082,0.0000457
8.2,103.513,12.978,100.082,-0.0001371
8.25,104.013,12.978,100.082,-0.0002287
8.3,104.513,12.978,100.083,-0.0001372
8.35,105.013,12.978,100.082,-0.0000915
8.4,105.513,12.978,100.082,-0.0000915
8.45,106.014,12.978,100.082,-0.0001373
8.5,106.514,12.978,100.082,-0.0009152
8.55,107.014,12.978,100.082,-0.0006406
8.6,107.514,12.978,100.082,-0.0000000
8.65,108.014,12.978,100.082,0.0001373
8.7,108.514,12.978,100.082,-0.0001830
8.75,109.014,12.978,100.082,0.0000000
8.8,109.514,12.978,100.082,0.0000000
8.85,110.014,12.978,100.082,0.0002746
8.9,110.514,12.978,100.082,-0.0000458
8.95,111.014,12.978,100.082,0.0000000
9,111.515,12.978,100.082,0.0000000
9.05,112.015,12.978,100.082,-0.0004117
9.1,112.515,12.978,100.082,-0.0000915
9.15,113.015,12.978,100.081,-0.0000458
9.2,113.515,12.978,100.081,-0.0005040
9.25,114.015,12.978,100.081,-0.0003206
9.3,114.515,12.978,100.081,-0.0002291
9.35,115.015,12.978,100.081,-0.0001374
9.4,115.515,12.978,100.081,-0.0002746
9.45,116.015,12.978,100.081,-0.0005949
9.5,116.515,12.978,100.081,-0.0002747
9.55,117.016,12.978,100.081,-0.0003663
9.6,117.516,12.978,100.081,-0.0003665
9.65,118.016,12.978,100.08,-0.0009165
9.7,118.516,12.978,100.08,-0.0005044
9.75,119.016,12.978,100.08,-0.0005042
9.8,119.516,12.978,100.08,-0.0004125
9.85,120.016,12.978,100.08,-0.0003207
9.9,120.516,12.978,100.079,-0.0000458
9.95,121.016,12.978,100.079,-0.0002289
10,121.516,12.978,100.079,-0.0001374
10.05,122.016,12.978,100.079,-0.0000916
10.1,122.517,12.978,100.079,0.0000458
10.15,123.017,12.978,100.079,-0.0000917
10.2,123.517,12.978,100.079,-0.0003666
10.25,124.017,12.978,100.079,-0.0001375
10.3,124.517,12.978,100.079,-0.0002750
10.35,125.017,12.978,100.079,-0.0003207
10.4,125.517,12.978,100.078,-0.0001375
10.45,126.017,12.978,100.078,-0.0001834
10.5,126.517,12.978,100.078,-0.0003208
10.55,127.017,12.978,100.078,-0.0001834
10.6,127.517,12.978,100.078,0.0000459
10.65,128.018,12.978,100.078,-0.0006420
10.7,128.518,12.978,100.078,-0.0008712
10.76,129.018,12.978,100.078,-0.0004588
10.81,129.518,12.978,100.077,0.0000918
10.86,130.018,12.978,100.077,0.0001835
10.91,130.518,12.978,100.077,0.0002751
10.96,131.018,12.978,100.077,-0.0001834
11.01,131.518,12.978,100.077,0.0000000
11.06,132.018,12.978,100.077,0.0000459
11.11,132.518,12.978,100.077,0.0003208
11.16,133.018,12.978,100.077,-0.0003664
11.21,133.518,12.978,100.077,-0.0005954
11.26,134.019,12.978,100.077,-0.0002290
11.31,134.519,12.978,100.077,-0.0002747
11.36,135.019,12.978,100.077,-0.0001373
11.41,135.519,12.978,100.077,-0.0002288
11.46,136.019,12.978,100.076,-0.0006403
11.51,136.519,12.978,100.076,-0.0008685
11.56,137.019,12.978,100.076,-0.0005027
11.61,137.519,12.978,100.075,-0.0004111
11.66,138.019,12.977,100.075,-0.0011869
11.71,138.519,12.977,100.074,-0.0016864
11.76,139.019,12.977,100.073,-0.0020492
11.8,139.52,12.977,100.072,-0.0021838
11.85,140.02,12.977,100.071,-0.0024523
11.9,140.52,12.977,100.07,-0.0026777
11.95,141.02,12.977,100.069,-0.0028120
12,141.52,12.977,100.068,-0.0022226
12.05,142.02,12.976,100.066,-0.0023108
12.1,142.52,12.976,100.065,-0.0024036
12.15,143.02,12.976,100.064,-0.0018174
12.2,143.52,12.976,100.063,-0.0020031
12.25,144.02,12.976,100.062,-0.0017787
12.3,144.52,12.976,100.061,-0.0019653
12.35,145.021,12.976,100.06,-0.0012369
12.4,145.521,12.976,100.059,-0.0014679
12.45,146.021,12.975,100.059,-0.0016077
12.5,146.521,12.975,100.058,-0.0017923
12.55,147.021,12.975,100.057,-0.0015184
12.6,147.521,12.975,100.056,-0.0010580
12.65,148.021,12.975,100.056,-0.0004597
12.7,148.521,12.975,100.055,-0.0011494
12.75,149.021,12.975,100.055,-0.0010584
12.8,149.521,12.975,100.054,-0.0014266
12.85,150.021,12.975,100.054,-0.0010573
12.9,150.522,12.975,100.053,-0.0019770
12.95,151.022,12.975,100.052,-0.0014253
13,151.522,12.974,100.051,-0.0012870
13.05,152.022,12.974,100.051,-0.0011948
13.11,152.522,12.974,100.05,-0.0015161
13.16,153.022,12.974,100.049,-0.0011024
13.21,153.522,12.974,100.048,-0.0012400
13.26,154.022,12.974,100.048,-0.0014682
13.31,154.522,12.974,100.047,-0.0009174
13.36,155.022,12.974,100.046,-0.0012838
13.41,155.522,12.974,100.046,-0.0014211
13.46,156.023,12.974,100.045,-0.0015582
13.51,156.523,12.974,100.044,-0.0011916
13.56,157.023,12.973,100.044,-0.0013745
13.61,157.523,12.973,100.043,-0.0012838
13.66,158.023,12.973,100.042,-0.0016052
13.71,158.523,12.973,100.041,-0.0016499
13.76,159.023,12.973,100.041,-0.0013749
13.81,159.523,12.973,100.04,-0.0011455
13.86,160.023,12.973,100.039,-0.0011457
13.91,160.523,12.973,100.039,-0.0011465
13.96,161.023,12.973,100.038,-0.0015578
14.01,161.523,12.973,100.037,-0.0010535
14.06,162.024,12.973,100.037,-0.0010999
14.11,162.524,12.972,100.036,-0.0011457
14.16,163.024,12.972,100.035,-0.0012377
14.21,163.524,12.972,100.035,-0.0014676
14.26,164.024,12.972,100.034,-0.0016055
14.31,164.524,12.972,100.033,-0.0016059
14.36,165.024,12.972,100.032,-0.0017420
14.41,165.524,12.972,100.032,-0.0016036
14.46,166.024,12.972,100.031,-0.0015120
14.51,166.524,12.972,100.03,-0.0014652
14.56,167.024,12.972,100.029,-0.0015110
14.61,167.525,12.972,100.029,-0.0013272
14.66,168.025,12.971,100.028,-0.0014190
14.71,168.525,12.971,100.027,-0.0015571
14.76,169.025,12.971,100.027,-0.0012374
14.81,169.525,12.971,100.026,-0.0014671
14.86,170.025,12.971,100.025,-0.0016509
14.91,170.525,12.971,100.024,-0.0017882
14.96,171.025,12.971,100.023,-0.0021097
15.01,171.525,12.971,100.022,-0.0018804
15.06,172.025,12.971,100.022,-0.0015129
15.11,172.525,12.971,100.021,-0.0014208
15.16,173.026,12.97,100.02,-0.0013746
15.21,173.526,12.97,100.019,-0.0015117
15.26,174.026,12.97,100.019,-0.0015570
15.31,174.526,12.97,100.018,-0.0013743
15.36,175.026,12.97,100.017,-0.0020147
15.41,175.526,12.97,100.016,-0.0017395
15.46,176.026,12.97,100.015,-0.0019683
15.51,176.526,12.97,100.014,-0.0019231
15.56,177.026,12.97,100.014,-0.0017420
15.61,177.526,12.969,100.013,-0.0020165
15.66,178.026,12.969,100.012,-0.0016051
15.71,178.527,12.969,100.011,-0.0020183
15.76,179.027,12.969,100.01,-0.0016040
15.81,179.527,12.969,100.009,-0.0015117
15.86,180.027,12.969,100.008,-0.0017406
15.91,180.527,12.969,100.007,-0.0016923
15.96,181.027,12.969,100.006,-0.0020580
16.01,181.527,12.969,100.005,-0.0016476
16.06,182.027,12.968,100.005,-0.0014214
16.11,182.527,12.968,100.004,-0.0018344
16.16,183.027,12.968,100.003,-0.0018318
16.21,183.527,12.968,100.002,-0.0021992
16.26,184.028,12.968,100.001,-0.0014211
16.31,184.528,12.968,100,-0.0013303
16.36,185.028,12.968,99.999,-0.0019275
16.41,185.528,12.968,99.998,-0.0022940
16.46,186.028,12.967,99.997,-0.0020639
16.51,186.528,12.967,99.996,-0.0018349
16.56,187.028,12.967,99.995,-0.0015582
16.61,187.528,12.967,99.994,-0.0023821
16.66,188.028,12.967,99.993,-0.0023356
16.71,188.528,12.967,99.992,-0.0022431
16.76,189.028,12.967,99.991,-0.0015570
16.81,189.528,12.967,99.99,-0.0020165
16.86,190.029,12.966,99.989,-0.0018811
16.91,190.529,12.966,99.988,-0.0022492
16.96,191.029,12.966,99.987,-0.0021564
17.01,191.529,12.966,99.986,-0.0016045
17.06,192.029,12.966,99.985,-0.0015577
17.11,192.529,12.966,99.984,-0.0020152
17.16,193.029,12.966,99.983,-0.0021528
17.21,193.529,12.966,99.982,-0.0018782
17.26,194.029,12.965,99.981,-0.0022446
17.31,194.529,12.965,99.98,-0.0020152
17.36,195.029,12.965,99.979,-0.0019697
17.41,195.53,12.965,99.978,-0.0019689
17.46,196.03,12.965,99.977,-0.0021066
17.51,196.53,12.965,99.976,-0.0019698
17.56,197.03,12.965,99.975,-0.0021994
17.61,197.53,12.964,99.974,-0.0022898
17.66,198.03,12.964,99.973,-0.0021978
17.71,198.53,12.964,99.972,-0.0025192
17.76,199.03,12.964,99.971,-0.0022450
17.81,199.53,12.964,99.969,-0.0019707
17.86,200.03,12.964,99.968,-0.0021998
17.91,200.53,12.964,99.967,-0.0021530
17.96,201.031,12.963,99.966,-0.0019248
18.01,201.531,12.963,99.965,-0.0025657
18.06,202.031,12.963,99.964,-0.0023821
18.11,202.531,12.963,99.963,-0.0027022
18.16,203.031,12.963,99.961,-0.0024279
18.21,203.531,12.963,99.96,-0.0026574
18.26,204.031,12.962,99.959,-0.0025153
18.31,204.531,12.962,99.958,-0.0026985
18.36,205.031,12.962,99.956,-0.0024216
18.41,205.531,12.962,99.955,-0.0021475
18.46,206.031,12.962,99.954,-0.0021481
18.51,206.532,12.962,99.953,-0.0023334
18.56,207.032,12.962,99.952,-0.0026564
18.61,207.532,12.961,99.95,-0.0026111
18.66,208.032,12.961,99.949,-0.0022450
18.71,208.532,12.961,99.948,-0.0026596
18.76,209.032,12.961,99.946,-0.0026630
18.81,209.532,12.961,99.945,-0.0025726
18.86,210.032,12.961,99.944,-0.0026654
18.91,210.532,12.96,99.943,-0.0029425
18.96,211.032,12.96,99.941,-0.0026207
19.01,211.532,12.96,99.94,-0.0026185
19.06,212.033,12.96,99.939,-0.0026154
19.11,212.533,12.96,99.938,-0.0022925
19.16,213.033,12.96,99.936,-0.0024283
19.21,213.533,12.959,99.935,-0.0025174
19.26,214.033,12.959,99.934,-0.0025192
19.31,214.533,12.959,99.932,-0.0023810
19.36,215.033,12.959,99.931,-0.0027015
19.41,215.533,12.959,99.93,-0.0027015
19.46,216.033,12.958,99.928,-0.0030683
19.51,216.533,12.958,99.927,-0.0027938
19.56,217.033,12.958,99.925,-0.0028388
19.61,217.533,12.958,99.924,-0.0033400
19.66,218.034,12.958,99.922,-0.0027933
19.71,218.534,12.958,99.921,-0.0028402
19.76,219.034,12.957,99.919,-0.0027943
19.81,219.534,12.957,99.918,-0.0030697
19.86,220.034,12.957,99.916,-0.0027032
19.91,220.534,12.957,99.915,-0.0029781
19.96,221.034,12.957,99.914,-0.0028404
20.01,221.534,12.956,99.912,-0.0030701
20.06,222.034,12.956,99.911,-0.0027948
20.12,222.534,12.956,99.909,-0.0029776
20.17,223.034,12.956,99.907,-0.0031170
20.22,223.535,12.956,99.906,-0.0029325
20.27,224.035,12.955,99.904,-0.0028859
20.32,224.535,12.955,99.903,-0.0030241
20.37,225.035,12.955,99.901,-0.0032988
20.42,225.535,12.955,99.9,-0.0032051
20.47,226.035,12.955,99.898,-0.0029762
20.52,226.535,12.954,99.897,-0.0032057
20.57,227.035,12.954,99.895,-0.0033905
20.62,227.535,12.954,99.893,-0.0033892
20.67,228.035,12.954,99.892,-0.0033889
20.72,228.535,12.954,99.89,-0.0034814
20.77,229.036,12.953,99.888,-0.0036192
20.82,229.536,12.953,99.887,-0.0033440
20.87,230.036,12.953,99.885,-0.0032986
20.92,230.536,12.953,99.883,-0.0034372
20.97,231.036,12.952,99.882,-0.0033449
21.02,231.536,12.952,99.88,-0.0032081
21.07,232.036,12.952,99.878,-0.0033852
21.12,232.536,12.952,99.876,-0.0033812
21.17,233.036,12.952,99.875,-0.0034287
21.22,233.536,12.951,99.873,-0.0033394
21.27,234.036,12.951,99.871,-0.0037522
21.32,234.537,12.951,99.869,-0.0035224
21.37,235.037,12.951,99.868,-0.0034303
21.42,235.537,12.95,99.866,-0.0038010
21.47,236.037,12.95,99.864,-0.0035757
21.52,236.537,12.95,99.862,-0.0038532
21.57,237.037,12.95,99.86,-0.0039461
21.62,237.537,12.949,99.858,-0.0040852
21.67,238.037,12.949,99.856,-0.0038567
21.72,238.537,12.949,99.854,-0.0038543
21.77,239.037,12.949,99.852,-0.0041724
21.82,239.537,12.948,99.851,-0.0039864
21.87,240.038,12.948,99.848,-0.0042672
21.92,240.538,12.948,99.846,-0.0039027
21.97,241.038,12.948,99.844,-0.0038998
22.02,241.538,12.947,99.843,-0.0037636
22.07,242.038,12.947,99.841,-0.0039457
22.12,242.538,12.947,99.839,-0.0037095
22.17,243.038,12.947,99.837,-0.0037487
22.22,243.538,12.946,99.835,-0.0038381
22.27,244.038,12.946,99.833,-0.0039767
22.32,244.538,12.946,99.831,-0.0038433
22.37,245.038,12.946,99.829,-0.0040721
22.42,245.538,12.945,99.827,-0.0042097
22.47,246.039,12.945,99.824,-0.0043498
22.52,246.539,12.945,99.822,-0.0041697
22.57,247.039,12.944,99.82,-0.0041265
22.62,247.539,12.944,99.818,-0.0040814
22.67,248.039,12.944,99.816,-0.0044483
22.72,248.539,12.944,99.814,-0.0039442
22.77,249.039,12.943,99.812,-0.0044016
22.82,249.539,12.943,99.81,-0.0043984
22.87,250.039,12.943,99.807,-0.0043498
22.92,250.539,12.943,99.805,-0.0043956
22.97,251.039,12.942,99.803,-0.0045371
23.02,251.54,12.942,99.801,-0.0043080
23.07,252.04,12.942,99.799,-0.0044872
23.12,252.54,12.941,99.796,-0.0043936
23.17,253.04,12.941,99.794,-0.0043920
23.22,253.54,12.941,99.792,-0.0045301
23.27,254.04,12.941,99.79,-0.0045766
23.32,254.54,12.94,99.787,-0.0045775
23.37,255.04,12.94,99.785,-0.0042582
23.42,255.54,12.94,99.783,-0.0044442
23.47,256.04,12.939,99.781,-0.0044896
23.52,256.54,12.939,99.778,-0.0043538
23.57,257.041,12.939,99.776,-0.0045846
23.62,257.541,12.938,99.774,-0.0043554
23.67,258.041,12.938,99.771,-0.0045872
23.72,258.541,12.938,99.769,-0.0043554
23.77,259.041,12.938,99.767,-0.0044414
23.82,259.541,12.937,99.764,-0.0047135
23.87,260.041,12.937,99.762,-0.0048077
23.92,260.541,12.937,99.76,-0.0047645
23.97,261.041,12.936,99.757,-0.0046677
24.02,261.541,12.936,99.755,-0.0048051
24.07,262.041,12.936,99.752,-0.0047619
24.12,262.542,12.935,99.75,-0.0049011
24.17,263.042,12.935,99.747,-0.0049477
24.22,263.542,12.935,99.745,-0.0048561
24.27,264.042,12.934,99.743,-0.0049964
24.32,264.542,12.934,99.74,-0.0054089
24.37,265.042,12.934,99.737,-0.0053191
24.42,265.542,12.933,99.735,-0.0052246
24.47,266.042,12.933,99.732,-0.0050413
24.52,266.542,12.933,99.73,-0.0050394
24.57,267.042,12.932,99.727,-0.0051768
24.62,267.542,12.932,99.725,-0.0051301
24.67,268.043,12.932,99.722,-0.0054049
24.72,268.543,12.931,99.72,-0.0051758
24.77,269.043,12.931,99.717,-0.0051740
24.82,269.543,12.931,99.714,-0.0051301
24.87,270.043,12.93,99.712,-0.0051778
24.92,270.543,12.93,99.709,-0.0054517
24.97,271.043,12.93,99.706,-0.0052198
25.02,271.543,12.929,99.704,-0.0053532
25.07,272.043,12.929,99.701,-0.0052608
25.12,272.543,12.929,99.698,-0.0052636
25.17,273.043,12.928,99.695,-0.0054457
25.22,273.543,12.928,99.693,-0.0054985
25.27,274.044,12.928,99.69,-0.0051330
25.32,274.544,12.927,99.687,-0.0057745
25.37,275.044,12.927,99.685,-0.0058257
25.42,275.544,12.927,99.682,-0.0055933
25.47,276.044,12.926,99.679,-0.0056370
25.52,276.544,12.926,99.676,-0.0054537
25.57,277.044,12.925,99.673,-0.0055861
25.62,277.544,12.925,99.671,-0.0058129
25.67,278.044,12.925,99.668,-0.0058118
25.72,278.544,12.924,99.665,-0.0058118
25.77,279.044,12.924,99.662,-0.0057692
25.82,279.545,12.924,99.659,-0.0058203
25.87,280.045,12.923,99.656,-0.0055443
25.92,280.545,12.923,99.653,-0.0056797
25.97,281.045,12.922,99.65,-0.0055861
26.02,281.545,12.922,99.648,-0.0056746
26.07,282.045,12.922,99.645,-0.0059012
26.12,282.545,12.921,99.642,-0.0060406
26.17,283.045,12.921,99.639,-0.0057692
26.22,283.545,12.921,99.636,-0.0060976
26.27,284.045,12.92,99.633,-0.0060517
26.32,284.545,12.92,99.63,-0.0058662
26.37,285.046,12.919,99.627,-0.0061379
26.42,285.546,12.919,99.624,-0.0058150
26.47,286.046,12.919,99.621,-0.0064126
26.52,286.546,12.918,99.618,-0.0062328
26.57,287.046,12.918,99.615,-0.0062271
26.62,287.546,12.917,99.612,-0.0063610
26.67,288.046,12.917,99.609,-0.0062237
26.72,288.546,12.917,99.606,-0.0060440
26.77,289.046,12.916,99.602,-0.0061791
26.82,289.546,12.916,99.599,-0.0061389
26.87,290.046,12.915,99.596,-0.0063221
26.92,290.547,12.915,99.593,-0.0064560
26.97,291.047,12.915,99.59,-0.0063668
27.02,291.547,12.914,99.587,-0.0064596
27.07,292.047,12.914,99.583,-0.0065994
27.12,292.547,12.913,99.58,-0.0061847
27.17,293.047,12.913,99.577,-0.0062294
27.22,293.547,12.913,99.574,-0.0063645
27.27,294.047,12.912,99.571,-0.0062729
27.32,294.547,12.912,99.567,-0.0062763
27.37,295.047,12.911,99.564,-0.0065054
27.42,295.547,12.911,99.561,-0.0063703
27.47,296.048,12.91,99.558,-0.0066007
27.52,296.548,12.91,99.555,-0.0065018
27.57,297.048,12.91,99.551,-0.0061288
27.62,297.548,12.909,99.548,-0.0065392
27.67,298.048,12.909,99.545,-0.0065476
27.72,298.548,12.908,99.542,-0.0069635
27.77,299.048,12.908,99.538,-0.0066429
27.82,299.548,12.907,99.535,-0.0067790
27.87,300.048,12.907,99.532,-0.0067332
27.92,300.548,12.907,99.528,-0.0067332
27.97,301.048,12.906,99.525,-0.0066428
28.02,301.548,12.906,99.521,-0.0072829
28.07,302.049,12.905,99.518,-0.0069139
28.12,302.549,12.905,99.514,-0.0070016
28.17,303.049,12.904,99.511,-0.0069545
28.22,303.549,12.904,99.508,-0.0069102
28.27,304.049,12.904,99.504,-0.0070906
28.32,304.549,12.903,99.501,-0.0064982
28.37,305.049,12.903,99.497,-0.0066850
28.42,305.549,12.902,99.494,-0.0068223
28.47,306.049,12.902,99.491,-0.0066850
28.52,306.549,12.901,99.487,-0.0068249
28.57,307.049,12.901,99.484,-0.0071886
28.62,307.55,12.9,99.48,-0.0070958
28.67,308.05,12.9,99.477,-0.0069114
28.72,308.55,12.899,99.473,-0.0067766
28.77,309.05,12.899,99.47,-0.0068198
28.82,309.55,12.899,99.466,-0.0068223
28.87,310.05,12.898,99.463,-0.0068261
28.92,310.55,12.898,99.459,-0.0074217
28.97,311.05,12.897,99.455,-0.0075618
29.02,311.55,12.897,99.452,-0.0072344
29.07,312.05,12.896,99.448,-0.0074216
29.12,312.55,12.896,99.445,-0.0069597
29.17,313.051,12.895,99.441,-0.0071886
29.22,313.551,12.895,99.438,-0.0071886
29.27,314.051,12.894,99.434,-0.0067308
29.32,314.551,12.894,99.431,-0.0070513
29.37,315.051,12.893,99.427,-0.0069139
29.42,315.551,12.893,99.423,-0.0071886
29.47,316.051,12.893,99.42,-0.0073260
29.52,316.551,12.892,99.416,-0.0073260
29.57,317.051,12.892,99.413,-0.0072842
29.62,317.551,12.891,99.409,-0.0069661
29.67,318.051,12.891,99.405,-0.0070564
29.72,318.552,12.89,99.402,-0.0072384
29.77,319.052,12.89,99.398,-0.0074176
29.82,319.552,12.889,99.395,-0.0071860
29.87,320.052,12.889,99.391,-0.0075508
29.92,320.552,12.888,99.387,-0.0072344
29.97,321.052,12.888,99.384,-0.0070932
30.02,321.552,12.887,99.38,-0.0071847
30.07,322.052,12.887,99.376,-0.0075092
30.12,322.552,12.886,99.373,-0.0073260
30.17,323.052,12.886,99.369,-0.0074176
30.22,323.552,12.885,99.365,-0.0074661
30.27,324.053,12.885,99.361,-0.0075550
30.32,324.553,12.884,99.358,-0.0074176
30.37,325.053,12.884,99.354,-0.0073220
30.42,325.553,12.884,99.35,-0.0073300
30.47,326.053,12.883,99.346,-0.0074244
30.52,326.553,12.883,99.343,-0.0073812
30.57,327.053,12.882,99.339,-0.0075688
30.62,327.553,12.882,99.335,-0.0077036
30.67,328.053,12.881,99.331,-0.0079787
30.72,328.553,12.881,99.327,-0.0078899
30.77,329.053,12.88,99.323,-0.0075661
30.82,329.553,12.88,99.32,-0.0075661
30.87,330.054,12.879,99.316,-0.0076606
30.92,330.554,12.879,99.312,-0.0074675
30.97,331.054,12.878,99.308,-0.0077881
31.02,331.554,12.878,99.304,-0.0076424
31.07,332.054,12.877,99.3,-0.0078755
31.12,332.554,12.877,99.296,-0.0076951
31.17,333.054,12.876,99.292,-0.0078755
31.22,333.554,12.876,99.288,-0.0077797
31.27,334.054,12.875,99.285,-0.0078783
31.32,334.554,12.875,99.281,-0.0075092
31.37,335.054,12.874,99.277,-0.0079169
31.42,335.555,12.873,99.273,-0.0080999
31.47,336.055,12.873,99.269,-0.0081471
31.52,336.555,12.872,99.265,-0.0080586
31.57,337.055,12.872,99.261,-0.0077896
31.62,337.555,12.871,99.257,-0.0079256
31.67,338.055,12.871,99.253,-0.0078297
31.72,338.555,12.87,99.249,-0.0081885
31.77,339.055,12.87,99.245,-0.0080970
31.82,339.555,12.869,99.241,-0.0081398
31.87,340.055,12.869,99.236,-0.0081855
31.92,340.555,12.868,99.232,-0.0084676
31.97,341.056,12.868,99.228,-0.0083714
32.02,341.556,12.867,99.224,-0.0079598
32.07,342.056,12.867,99.22,-0.0085118
32.12,342.556,12.866,99.216,-0.0085165
32.17,343.056,12.866,99.211,-0.0083837
32.22,343.556,12.865,99.207,-0.0083364
32.27,344.056,12.864,99.203,-0.0085165
32.32,344.556,12.864,99.199,-0.0082845
32.37,345.056,12.863,99.194,-0.0083760
32.42,345.556,12.863,99.19,-0.0089253
32.47,346.056,12.862,99.186,-0.0087880
32.52,346.557,12.862,99.181,-0.0085923
32.57,347.057,12.861,99.177,-0.0084977
32.62,347.557,12.861,99.173,-0.0090494
32.67,348.057,12.86,99.168,-0.0086964
32.72,348.557,12.859,99.164,-0.0082493
32.77,349.057,12.859,99.159,-0.0088025
32.82,349.557,12.858,99.155,-0.0088942
32.87,350.057,12.858,99.151,-0.0088941
32.92,350.557,12.857,99.146,-0.0087044
32.97,351.057,12.856,99.142,-0.0090626
33.02,351.557,12.856,99.137,-0.0092949
33.07,352.058,12.855,99.133,-0.0092524
33.12,352.558,12.855,99.128,-0.0092084
33.17,353.058,12.854,99.123,-0.0091626
33.22,353.558,12.854,99.119,-0.0093407
33.27,354.058,12.853,99.114,-0.0092542
33.32,354.558,12.852,99.109,-0.0096648
33.37,355.058,12.852,99.104,-0.0093813
33.42,355.558,12.851,99.1,-0.0095608
33.47,356.058,12.85,99.095,-0.0096945
33.52,356.558,12.85,99.09,-0.0098774
33.57,357.058,12.849,99.085,-0.0095643
33.62,357.558,12.849,99.081,-0.0094728
33.67,358.059,12.848,99.076,-0.0096101
33.72,358.559,12.847,99.071,-0.0096647
33.77,359.059,12.847,99.066,-0.0093440
33.82,359.559,12.846,99.061,-0.0096189
33.87,360.059,12.845,99.056,-0.0099395
33.92,360.559,12.845,99.051,-0.0098847
33.97,361.059,12.844,99.046,-0.0104376
34.02,361.559,12.843,99.041,-0.0103881
34.07,362.059,12.843,99.036,-0.0103442
34.12,362.559,12.842,99.031,-0.0102564
34.17,363.059,12.841,99.026,-0.0100239
34.22,363.56,12.841,99.021,-0.0106548
34.27,364.06,12.84,99.016,-0.0102013
34.32,364.56,12.839,99.01,-0.0105215
34.37,365.06,12.839,99.005,-0.0103842
34.42,365.56,12.838,99,-0.0108915
34.47,366.06,12.837,98.994,-0.0108894
34.52,366.56,12.837,98.989,-0.0107561
34.57,367.06,12.836,98.984,-0.0108576
34.62,367.56,12.835,98.978,-0.0107699
34.67,368.06,12.835,98.973,-0.0107143
34.72,368.56,12.834,98.968,-0.0109829
34.77,369.061,12.833,98.962,-0.0110806
34.82,369.561,12.832,98.956,-0.0112575
34.87,370.061,12.832,98.951,-0.0112637
34.92,370.561,12.831,98.945,-0.0113595
34.97,371.061,12.83,98.94,-0.0114469
35.02,371.561,12.83,98.934,-0.0114510
35.07,372.061,12.829,98.928,-0.0115885
35.12,372.561,12.828,98.922,-0.0121337
35.17,373.061,12.827,98.916,-0.0118590
35.22,373.561,12.827,98.91,-0.0123169
35.27,374.061,12.826,98.904,-0.0123559
35.32,374.562,12.825,98.898,-0.0124496
35.37,375.062,12.824,98.892,-0.0123191
35.42,375.562,12.823,98.886,-0.0121862
35.47,376.062,12.822,98.88,-0.0123213
35.52,376.562,12.822,98.873,-0.0126832
35.57,377.062,12.821,98.867,-0.0127289
35.62,377.562,12.82,98.86,-0.0129121
35.68,378.062,12.819,98.854,-0.0132833
35.73,378.562,12.818,98.847,-0.0134231
35.78,379.062,12.817,98.84,-0.0136089
35.83,379.562,12.817,98.834,-0.0135989
35.88,380.063,12.816,98.827,-0.0139729
35.93,380.563,12.815,98.82,-0.0139118
35.98,381.063,12.814,98.813,-0.0143237
36.03,381.563,12.813,98.806,-0.0144178
36.08,382.063,12.812,98.798,-0.0148270
36.13,382.563,12.811,98.791,-0.0149267
36.18,383.063,12.81,98.783,-0.0151931
36.23,383.563,12.809,98.775,-0.0155592
36.28,384.063,12.808,98.767,-0.0159195
36.33,384.563,12.807,98.759,-0.0163223
36.37,385.063,12.806,98.751,-0.0168282
36.42,385.563,12.805,98.743,-0.0171452
36.47,386.064,12.804,98.734,-0.0176740
36.52,386.564,12.802,98.725,-0.0184167
36.57,387.064,12.801,98.716,-0.0186424
36.62,387.564,12.8,98.706,-0.0189171
36.68,388.064,12.799,98.697,-0.0195971
36.73,388.564,12.798,98.687,-0.0199176
36.78,389.064,12.796,98.677,-0.0197453
36.83,389.564,12.795,98.667,-0.0202653
36.88,390.064,12.794,98.657,-0.0206846
36.93,390.564,12.792,98.646,-0.0210623
36.97,391.064,12.791,98.636,-0.0215463
37.02,391.565,12.789,98.625,-0.0221328
37.07,392.065,12.788,98.614,-0.0226317
37.12,392.565,12.787,98.602,-0.0228644
37.17,393.065,12.785,98.591,-0.0236418
37.22,393.565,12.783,98.579,-0.0242820
37.27,394.065,12.782,98.566,-0.0247851
37.32,394.565,12.78,98.554,-0.0252470
37.37,395.065,12.779,98.541,-0.0259141
37.42,395.565,12.777,98.528,-0.0267726
37.47,396.065,12.775,98.514,-0.0272694
37.52,396.565,12.773,98.5,-0.0279762
37.57,397.066,12.771,98.486,-0.0285714
37.62,397.566,12.77,98.472,-0.0293309
37.67,398.066,12.768,98.457,-0.0301447
37.72,398.566,12.766,98.442,-0.0311584
37.77,399.066,12.764,98.426,-0.0316966
37.82,399.566,12.762,98.41,-0.0322981
37.87,400.066,12.759,98.393,-0.0331806
37.92,400.566,12.757,98.377,-0.0344780
37.97,401.066,12.755,98.359,-0.0347070
38.02,401.566,12.753,98.341,-0.0358778
38.07,402.066,12.75,98.323,-0.0370218
38.12,402.567,12.748,98.304,-0.0384721
38.17,403.067,12.745,98.285,-0.0394014
38.22,403.567,12.743,98.265,-0.0404613
38.27,404.067,12.74,98.244,-0.0416438
38.32,404.567,12.737,98.223,-0.0427957
38.37,405.067,12.735,98.201,-0.0442656
38.42,405.567,12.732,98.179,-0.0458661
38.47,406.067,12.729,98.155,-0.0473925
38.52,406.567,12.725,98.131,-0.0488564
38.57,407.067,12.722,98.106,-0.0506399
38.62,407.567,12.719,98.08,-0.0527159
38.67,408.068,12.715,98.054,-0.0546302
38.72,408.568,12.712,98.026,-0.0565787
38.77,409.068,12.708,97.998,-0.0584570
38.82,409.568,12.704,97.968,-0.0604128
38.87,410.068,12.7,97.937,-0.0624771
38.92,410.568,12.696,97.906,-0.0645147
38.97,411.068,12.692,97.873,-0.0666819
39.02,411.568,12.688,97.839,-0.0691120
39.07,412.068,12.683,97.803,-0.0721866
39.12,412.568,12.678,97.766,-0.0749817
39.17,413.068,12.673,97.728,-0.0782708
39.22,413.568,12.668,97.688,-0.0826925
39.27,414.069,12.663,97.646,-0.0890340
39.32,414.569,12.657,97.6,-0.0988745
39.37,415.069,12.65,97.551,-0.1021050
39.42,415.569,12.643,97.497,-0.1120150
39.47,416.069,12.636,97.438,-0.1178890
39.52,416.569,12.628,97.377,-0.1224600
39.57,417.069,12.619,97.311,-0.1334590
39.62,417.569,12.61,97.243,-0.1377700
39.67,418.069,12.601,97.173,-0.1454670
39.72,418.569,12.592,97.099,-0.1515190
39.77,419.069,12.582,97.023,-0.1547580
39.82,419.57,12.571,96.943,-0.1657210
39.87,420.07,12.561,96.861,-0.1706940
39.92,420.57,12.55,96.776,-0.1668340
39.97,421.07,12.539,96.69,-0.1692860
40.02,421.57,12.527,96.602,-0.1775860
40.07,422.07,12.515,96.511,-0.1784280
40.12,422.57,12.503,96.417,-0.1917730
40.17,423.07,12.491,96.32,-0.1985820
40.22,423.57,12.478,96.221,-0.2022440
40.27,424.07,12.464,96.118,-0.2100580
40.32,424.57,12.451,96.012,-0.2200220
40.37,425.071,12.436,95.902,-0.2238310
40.42,425.571,12.422,95.788,-0.2298380
40.47,426.071,12.406,95.669,-0.2414380
40.52,426.571,12.39,95.547,-0.2426790
40.57,427.071,12.374,95.421,-0.2563610
40.62,427.571,12.357,95.29,-0.2645800
40.67,428.071,12.339,95.155,-0.2829980
40.72,428.571,12.321,95.015,-0.2857600
40.77,429.071,12.303,94.871,-0.2966320
40.82,429.571,12.283,94.722,-0.3069910
40.87,430.071,12.263,94.567,-0.3191100
40.92,430.572,12.242,94.406,-0.3240610
40.97,431.072,12.221,94.24,-0.3353350
41.02,431.572,12.199,94.068,-0.3469940
41.07,432.072,12.175,93.889,-0.3713110
41.12,432.572,12.151,93.703,-0.3761660
41.17,433.072,12.126,93.511,-0.3956620
41.22,433.572,12.1,93.311,-0.4152940
41.27,434.072,12.073,93.103,-0.4192450
41.32,434.572,12.045,92.887,-0.4363660
41.37,435.072,12.016,92.664,-0.4629120
41.42,435.572,11.986,92.431,-0.4783950
41.47,436.073,11.955,92.188,-0.4894230
41.52,436.573,11.922,91.936,-0.5050330
41.57,437.073,11.888,91.675,-0.5294140
41.62,437.573,11.853,91.402,-0.5616200
41.67,438.073,11.817,91.122,-0.5844780
41.72,438.573,11.779,90.832,-0.5906510
41.77,439.073,11.74,90.531,-0.6171990
41.82,439.573,11.698,90.212,-0.6428110
41.87,440.073,11.655,89.877,-0.6825550
41.92,440.573,11.61,89.531,-0.6957880
41.97,441.073,11.564,89.173,-0.7148230
42.02,441.573,11.516,88.803,-0.7520220
42.07,442.074,11.466,88.418,-0.7888170
42.12,442.574,11.414,88.019,-0.8175770
42.17,443.074,11.36,87.605,-0.8628750
42.22,443.574,11.305,87.178,-0.8723590
42.27,444.074,11.248,86.738,-0.8949710
42.32,444.574,11.189,86.284,-0.9189370
42.37,445.074,11.128,85.813,-0.9620410
42.42,445.574,11.063,85.311,-1.00979
42.47,446.074,10.995,84.784,-1.06271
42.52,446.574,10.925,84.245,-1.07961
42.57,447.074,10.851,83.679,-1.16766
42.63,447.575,10.773,83.072,-1.18627
42.68,448.075,10.695,82.471,-1.27627
42.73,448.575,10.613,81.841,-1.272
42.78,449.075,10.53,81.203,-1.32019
42.83,449.575,10.445,80.549,-1.33037
42.88,450.075,10.357,79.863,-1.37729
42.93,450.575,10.265,79.158,-1.40709
42.98,451.075,10.171,78.433,-1.46618
43.03,451.575,10.075,77.696,-1.5027
43.08,452.075,9.974,76.913,-1.61168
43.13,452.575,9.867,76.088,-1.69391
43.18,453.076,9.757,75.24,-1.74358
43.23,453.576,9.644,74.368,-1.77447
43.28,454.076,9.526,73.458,-1.8301
43.33,454.576,9.403,72.508,-1.86915
43.38,455.076,9.28,71.558,-1.93838
43.43,455.576,9.15,70.558,-2.07216
43.48,456.076,9.017,69.538,-2.06287
43.53,456.576,8.881,68.484,-2.18946
43.58,457.076,8.739,67.39,-2.18499
43.63,457.576,8.591,66.247,-2.31462
43.68,458.076,8.436,65.053,-2.39276
43.73,458.577,8.277,63.829,-2.51319
43.78,459.077,8.114,62.57,-2.61092
43.83,459.577,7.945,61.27,-2.58437
43.88,460.077,7.774,59.946,-2.71912
43.93,460.577,7.597,58.58,-2.77801
43.98,461.077,7.416,57.185,-2.76753
44.03,461.577,7.224,55.704,-2.92705
44.08,462.077,7.032,54.23,-2.99031
44.13,462.577,6.835,52.711,-3.10149
44.18,463.077,6.64,51.201,-2.79461
44.23,463.577,6.448,49.725,-2.965
44.28,464.078,6.255,48.234,-3.11626
44.33,464.578,6.049,46.643,-3.20407
44.38,465.078,5.839,45.025,-3.17172
44.43,465.578,5.625,43.38,-3.32436
44.48,466.078,5.403,41.667,-3.41028
44.53,466.578,5.181,39.954,-3.50811
44.58,467.078,4.952,38.19,-3.59553
44.63,467.578,4.723,36.42,-3.61313
44.68,468.078,4.488,34.608,-3.69396
44.73,468.578,4.249,32.768,-3.71445
44.78,469.078,4.008,30.905,-3.74666
44.83,469.578,3.781,29.154,-3.52938
44.88,470.079,3.554,27.409,-3.51044
44.93,470.579,3.326,25.649,-3.52078
44.98,471.079,3.097,23.882,-3.54485
45.03,471.579,2.868,22.115,-3.5322
45.08,472.079,2.642,20.375,-3.40167
45.13,472.579,2.422,18.678,-2.99962
45.18,473.079,2.221,17.127,-3.15982
45.23,473.579,2.016,15.55,-3.02951
45.27,474.079,1.826,14.079,-2.95401
45.32,474.579,1.636,12.618,-2.85683
45.37,475.079,1.464,11.292,-2.53059
45.42,475.58,1.301,10.032,-2.4365
45.47,476.08,1.152,8.88,-2.24577
45.52,476.58,1.016,7.833,-2.06872
45.57,477.08,0.8850000,6.828,-1.91289
45.62,477.58,0.7670000,5.912,-1.75563
45.67,478.08,0.6570000,5.065,-1.51846
45.72,478.58,0.5660000,4.366,-1.37419
45.77,479.08,0.4840000,3.735,-1.17373
45.82,479.58,0.4140000,3.192,-0.9586390
45.87,480.08,0.3540000,2.733,-0.8040040
45.92,480.58,0.3050000,2.354,-0.6912910
45.97,481.081,0.2670000,2.056,-0.5462080
46.02,481.581,0.2350000,1.81,-0.4186810
46.07,482.081,0.2100000,1.621,-0.3215620
46.12,482.581,0.1920000,1.482,-0.2306100
46.17,483.081,0.1800000,1.387,-0.1555620
46.22,483.581,0.1720000,1.326,-0.0918159
46.27,484.081,0.1670000,1.291,-0.0461730
46.32,484.581,0.1650000,1.27,-0.0418258
46.37,485.081,0.1620000,1.249,-0.0409578
46.42,485.581,0.1600000,1.23,-0.0368189
46.47,486.081,0.1570000,1.213,-0.0317182
46.52,486.582,0.1550000,1.198,-0.0264063
46.57,487.082,0.1540000,1.186,-0.0216229
46.62,487.582,0.1530000,1.176,-0.0178325
46.67,488.082,0.1520000,1.168,-0.0148034
46.72,488.582,0.1510000,1.162,-0.0119477
46.77,489.082,0.1500000,1.157,-0.0094731
46.82,489.582,0.1490000,1.152,-0.0075946
46.87,490.082,0.1490000,1.149,-0.0061300
46.92,490.582,0.1490000,1.146,-0.0051693
46.97,491.082,0.1480000,1.144,-0.0041612
47.03,491.582,0.1480000,1.142,-0.0034881
47.08,492.083,0.1480000,1.14,-0.0031401
47.13,492.583,0.1480000,1.139,-0.0026063
47.18,493.083,0.1480000,1.138,-0.0019283
47.23,493.583,0.1470000,1.137,-0.0014027
47.28,494.083,0.1470000,1.136,-0.0017155
47.33,494.583,0.1470000,1.135,-0.0012450
47.38,495.083,0.1470000,1.134,-0.0009061
47.43,495.583,0.1470000,1.134,-0.0011719
47.48,496.083,0.1470000,1.133,-0.0010303
47.53,496.583,0.1470000,1.133,-0.0010792
47.58,497.083,0.1470000,1.132,-0.0011122
47.63,497.583,0.1470000,1.132,-0.0008998
47.68,498.084,0.1470000,1.132,-0.0005461
47.73,498.584,0.1470000,1.131,-0.0008914
47.78,499.084,0.1470000,1.131,-0.0009131
47.83,499.584,0.1470000,1.13,-0.0007487
47.88,500.084,0.1470000,1.13,-0.0004510
47.93,500.584,0.1460000,1.13,-0.0009632
47.98,501.084,0.1460000,1.129,-0.0005998
48.03,501.584,0.1460000,1.129,-0.0006651
48.07,502.084,0.1460000,1.129,-0.0005499
48.12,502.584,0.1460000,1.128,-0.0006643
48.17,503.084,0.1460000,1.128,-0.0005866
48.22,503.585,0.1460000,1.128,-0.0005104
48.27,504.085,0.1460000,1.128,-0.0005924
48.32,504.585,0.1460000,1.127,-0.0007680
48.37,505.085,0.1460000,1.127,-0.0004737
48.42,505.585,0.1460000,1.127,-0.0004947
48.47,506.085,0.1460000,1.126,-0.0004871
48.52,506.585,0.1460000,1.126,-0.0001955
48.57,507.085,0.1460000,1.126,-0.0002665
48.62,507.585,0.1460000,1.126,-0.0003383
48.67,508.085,0.1460000,1.126,-0.0006929
48.72,508.585,0.1460000,1.125,-0.0007910
48.77,509.086,0.1460000,1.125,-0.0006174
48.82,509.586,0.1460000,1.125,-0.0007313
48.87,510.086,0.1460000,1.125,-0.0001225
48.92,510.586,0.1460000,1.124,-0.0006197
48.97,511.086,0.1460000,1.124,-0.0008880
49.02,511.586,0.1460000,1.124,-0.0003509
49.07,512.086,0.1460000,1.124,-0.0002936
49.12,512.586,0.1460000,1.123,-0.0001079
49.17,513.086,0.1460000,1.123,-0.0004294
49.22,513.586,0.1460000,1.123,-0.0002563
49.27,514.086,0.1460000,1.123,-0.0000528
49.32,514.587,0.1460000,1.123,-0.0002278
49.37,515.087,0.1460000,1.123,-0.0000893
49.42,515.587,0.1460000,1.122,-0.0002309
49.47,516.087,0.1460000,1.122,-0.0003031
49.52,516.587,0.1460000,1.122,-0.0003881
49.57,517.087,0.1450000,1.122,-0.0005785
49.62,517.587,0.1450000,1.122,-0.0005466
49.67,518.087,0.1450000,1.121,-0.0006768
49.72,518.587,0.1450000,1.121,-0.0004212
49.77,519.087,0.1450000,1.121,-0.0000086
49.82,519.587,0.1450000,1.121,0.0001499
49.87,520.088,0.1450000,1.121,0.0000300
49.92,520.588,0.1450000,1.121,-0.0006197
49.97,521.088,0.1450000,1.121,-0.0002697
50.02,521.588,0.1450000,1.121,0.0001447
50.07,522.088,0.1450000,1.12,-0.0000551
50.12,522.588,0.1450000,1.12,-0.0001992
50.17,523.088,0.1450000,1.12,-0.0005419
50.22,523.588,0.1450000,1.12,-0.0003617
50.27,524.088,0.1450000,1.12,-0.0000557
50.32,524.588,0.1450000,1.12,-0.0002314
50.37,525.088,0.1450000,1.12,-0.0004851
50.42,525.588,0.1450000,1.119,-0.0007148
50.47,526.089,0.1450000,1.119,-0.0005666
50.52,526.589,0.1450000,1.119,-0.0002195
50.57,527.089,0.1450000,1.119,-0.0002029
50.62,527.589,0.1450000,1.119,-0.0003247
50.67,528.089,0.1450000,1.119,-0.0006899
50.72,528.589,0.1450000,1.118,-0.0004484
50.77,529.089,0.1450000,1.118,-0.0000600
50.82,529.589,0.1450000,1.118,-0.0004547
50.87,530.089,0.1450000,1.117,-0.0005472
50.92,530.589,0.1450000,1.117,-0.0006408
50.97,531.089,0.1450000,1.117,-0.0004944
51.02,531.59,0.1450000,1.117,-0.0004900
51.07,532.09,0.1450000,1.116,-0.0004663
51.12,532.59,0.1450000,1.116,-0.0005960
51.17,533.09,0.1450000,1.116,-0.0006296
51.22,533.59,0.1450000,1.115,-0.0006604
51.27,534.09,0.1450000,1.115,-0.0007461
51.32,534.59,0.1450000,1.115,-0.0006413
51.37,535.09,0.1450000,1.114,-0.0006601
51.42,535.59,0.1440000,1.114,-0.0010381
51.47,536.09,0.1440000,1.114,-0.0000986
51.52,536.59,0.1440000,1.114,-0.0004466
51.57,537.091,0.1440000,1.114,-0.0004193
51.62,537.591,0.1440000,1.114,-0.0005622
51.67,538.091,0.1440000,1.113,-0.0006675
51.72,538.591,0.1440000,1.113,-0.0008900
51.77,539.091,0.1440000,1.112,-0.0007965
51.82,539.591,0.1440000,1.112,-0.0008213
51.87,540.091,0.1440000,1.111,-0.0008442
51.92,540.591,0.1440000,1.111,-0.0013214
51.97,541.091,0.1440000,1.11,-0.0017199
52.02,541.591,0.1440000,1.109,-0.0016691
52.07,542.091,0.1440000,1.108,-0.0013708
52.12,542.592,0.1440000,1.108,-0.0013306
52.17,543.092,0.1440000,1.107,-0.0013228
52.22,543.592,0.1430000,1.106,-0.0016264
52.27,544.092,0.1430000,1.105,-0.0015030
52.32,544.592,0.1430000,1.105,-0.0011147
52.37,545.092,0.1430000,1.104,-0.0016609
52.42,545.592,0.1430000,1.103,-0.0013340
52.47,546.092,0.1430000,1.102,-0.0014116
52.52,546.592,0.1430000,1.102,-0.0014675
52.57,547.092,0.1430000,1.101,-0.0016641
52.62,547.592,0.1430000,1.1,-0.0019945
52.67,548.093,0.1430000,1.099,-0.0018903
52.72,548.593,0.1420000,1.098,-0.0015043
52.77,549.093,0.1420000,1.097,-0.0018031
52.82,549.593,0.1420000,1.096,-0.0019245
52.87,550.093,0.1420000,1.095,-0.0019818
52.92,550.593,0.1420000,1.095,-0.0016305
52.97,551.093,0.1420000,1.094,-0.0018659
53.02,551.593,0.1420000,1.093,-0.0017545
53.07,552.093,0.1420000,1.092,-0.0017480
53.12,552.593,0.1410000,1.091,-0.0021074
53.17,553.093,0.1410000,1.09,-0.0020259
53.22,553.593,0.1410000,1.089,-0.0018909
53.27,554.094,0.1410000,1.088,-0.0016078
53.32,554.594,0.1410000,1.087,-0.0019038
53.37,555.094,0.1410000,1.086,-0.0015060
53.42,555.594,0.1410000,1.086,-0.0009229
53.47,556.094,0.1410000,1.085,-0.0011805
53.52,556.594,0.1410000,1.084,-0.0018630
53.57,557.094,0.1400000,1.083,-0.0000129
53.62,557.594,0.1400000,1.083,-0.0006861
53.67,558.094,0.1400000,1.082,-0.0024999
53.72,558.594,0.1400000,1.082,-0.0022749
53.77,559.094,0.1400000,1.081,-0.0025836
53.82,559.595,0.1400000,1.08,-0.0006425
53.87,560.095,0.1400000,1.079,-0.0008000
53.92,560.595,0.1400000,1.079,-0.0011620
53.97,561.095,0.1400000,1.078,-0.0024600
54.02,561.595,0.1400000,1.077,-0.0018181
54.07,562.095,0.1400000,1.076,-0.0001870
54.12,562.595,0.1390000,1.075,-0.0015414
54.17,563.095,0.1390000,1.075,-0.0021009
54.22,563.595,0.1390000,1.074,-0.0022627
54.27,564.095,0.1390000,1.073,-0.0015110
54.32,564.595,0.1390000,1.072,-0.0014086
54.37,565.096,0.1390000,1.071,-0.0012995
54.42,565.596,0.1390000,1.07,-0.0023360
54.47,566.096,0.1390000,1.069,-0.0024098
54.52,566.596,0.1390000,1.068,-0.0018639
54.57,567.096,0.1380000,1.067,-0.0017894
54.62,567.596,0.1380000,1.066,-0.0022868
54.67,568.096,0.1380000,1.065,-0.0027935
54.72,568.596,0.1380000,1.064,-0.0025504
54.77,569.096,0.1380000,1.063,-0.0016913
54.82,569.596,0.1380000,1.062,-0.0009186
54.87,570.096,0.1380000,1.061,-0.0018837
54.92,570.597,0.1370000,1.06,-0.0027716
54.97,571.097,0.1370000,1.059,-0.0022545
55.02,571.597,0.1370000,1.058,-0.0013314
55.07,572.097,0.1370000,1.057,-0.0014725
55.12,572.597,0.1370000,1.056,-0.0020855
55.17,573.097,0.1370000,1.055,-0.0025121
55.22,573.597,0.1370000,1.054,-0.0020995
55.27,574.097,0.1370000,1.053,-0.0014690
55.32,574.597,0.1360000,1.052,-0.0016086
55.37,575.097,0.1360000,1.051,-0.0026317
55.42,575.597,0.1360000,1.05,-0.0019809
55.47,576.098,0.1360000,1.049,-0.0012874
55.52,576.598,0.1360000,1.048,-0.0017465
55.57,577.098,0.1360000,1.047,-0.0023091
55.62,577.598,0.1360000,1.046,-0.0020654
55.67,578.098,0.1350000,1.045,-0.0019824
55.72,578.598,0.1350000,1.044,-0.0019846
55.77,579.098,0.1350000,1.043,-0.0018572
55.82,579.598,0.1350000,1.042,-0.0024935
55.87,580.098,0.1350000,1.041,-0.0025664
55.92,580.598,0.1350000,1.04,-0.0021654
55.97,581.098,0.1350000,1.039,-0.0021968
56.02,581.598,0.1350000,1.037,-0.0021585
56.07,582.099,0.1340000,1.036,-0.0024134
56.12,582.599,0.1340000,1.035,-0.0023745
56.17,583.099,0.1340000,1.034,-0.0015486
56.22,583.599,0.1340000,1.033,-0.0016825
56.27,584.099,0.1340000,1.032,-0.0021788
56.32,584.599,0.1340000,1.031,-0.0021732
56.37,585.099,0.1340000,1.03,-0.0019052
56.42,585.599,0.1330000,1.029,-0.0020104
56.47,586.099,0.1330000,1.028,-0.0021447
56.52,586.599,0.1330000,1.027,-0.0020411
56.57,587.099,0.1330000,1.026,-0.0017657
56.62,587.6,0.1330000,1.025,-0.0015926
56.67,588.1,0.1330000,1.025,-0.0003844
56.72,588.6,0.1330000,1.025,-0.0006244
56.77,589.1,0.1330000,1.024,-0.0010005
56.82,589.6,0.1330000,1.024,-0.0009963
56.86,590,0.1330000,1.023,-0.0015364