File: R/rHDPE_App/app/www/Output/TGA/Condensed_Data/Resin11_1__1.csv
0.6800000,30,10.997,100.014
0.7300000,30.4001,10.997,100.016
0.7900000,30.8001,10.997,100.019
0.8400000,31.2002,10.997,100.021
0.8900000,31.6003,10.998,100.023
0.9500000,32.0004,10.998,100.025
0.9900000,32.4004,10.998,100.027
1.04,32.8005,10.998,100.029
1.09,33.2006,10.998,100.03
1.14,33.6006,10.999,100.031
1.19,34.0007,10.999,100.033
1.23,34.4008,10.999,100.035
1.28,34.8009,10.999,100.036
1.33,35.2009,10.999,100.038
1.37,35.601,10.999,100.039
1.42,36.0011,11,100.04
1.46,36.4011,11,100.041
1.5,36.8012,11,100.042
1.55,37.2013,11,100.043
1.59,37.6014,11,100.044
1.63,38.0014,11,100.045
1.68,38.4015,11,100.046
1.72,38.8016,11,100.047
1.77,39.2016,11,100.048
1.81,39.6017,11.001,100.049
1.85,40.0018,11.001,100.05
1.89,40.4019,11.001,100.051
1.94,40.8019,11.001,100.052
1.98,41.202,11.001,100.053
2.02,41.6021,11.001,100.053
2.06,42.0021,11.001,100.054
2.11,42.4022,11.001,100.055
2.15,42.8023,11.001,100.056
2.19,43.2024,11.001,100.057
2.23,43.6024,11.001,100.057
2.28,44.0025,11.002,100.058
2.32,44.4026,11.002,100.059
2.36,44.8026,11.002,100.059
2.4,45.2027,11.002,100.06
2.44,45.6028,11.002,100.061
2.48,46.0029,11.002,100.062
2.53,46.4029,11.002,100.062
2.57,46.803,11.002,100.063
2.61,47.2031,11.002,100.064
2.65,47.6031,11.002,100.064
2.69,48.0032,11.002,100.065
2.73,48.4033,11.002,100.066
2.77,48.8034,11.002,100.066
2.81,49.2034,11.002,100.067
2.86,49.6035,11.003,100.068
2.9,50.0036,11.003,100.069
2.94,50.4036,11.003,100.07
2.98,50.8037,11.003,100.071
3.02,51.2038,11.003,100.071
3.06,51.6039,11.003,100.072
3.1,52.0039,11.003,100.072
3.14,52.404,11.003,100.073
3.19,52.8041,11.003,100.074
3.23,53.2041,11.003,100.074
3.27,53.6042,11.003,100.075
3.31,54.0043,11.003,100.076
3.35,54.4044,11.004,100.077
3.39,54.8044,11.004,100.077
3.43,55.2045,11.004,100.078
3.47,55.6046,11.004,100.079
3.51,56.0046,11.004,100.079
3.55,56.4047,11.004,100.08
3.59,56.8048,11.004,100.081
3.64,57.2049,11.004,100.081
3.68,57.6049,11.004,100.082
3.72,58.005,11.004,100.083
3.76,58.4051,11.004,100.083
3.8,58.8051,11.004,100.084
3.84,59.2052,11.004,100.085
3.88,59.6053,11.005,100.086
3.92,60.0054,11.005,100.086
3.96,60.4054,11.005,100.087
4,60.8055,11.005,100.088
4.04,61.2056,11.005,100.088
4.08,61.6056,11.005,100.089
4.12,62.0057,11.005,100.09
4.16,62.4058,11.005,100.09
4.2,62.8059,11.005,100.091
4.24,63.2059,11.005,100.091
4.28,63.606,11.005,100.092
4.32,64.0061,11.005,100.093
4.36,64.4061,11.005,100.093
4.4,64.8062,11.005,100.094
4.44,65.2063,11.006,100.095
4.49,65.6064,11.006,100.095
4.53,66.0064,11.006,100.096
4.56,66.4065,11.006,100.097
4.6,66.8066,11.006,100.097
4.65,67.2066,11.006,100.098
4.69,67.6067,11.006,100.098
4.73,68.0068,11.006,100.099
4.77,68.4069,11.006,100.1
4.81,68.8069,11.006,100.1
4.85,69.207,11.006,100.101
4.89,69.6071,11.006,100.101
4.93,70.0071,11.006,100.102
4.97,70.4072,11.006,100.102
5.01,70.8073,11.006,100.103
5.05,71.2074,11.006,100.103
5.09,71.6074,11.007,100.104
5.13,72.0075,11.007,100.104
5.17,72.4076,11.007,100.105
5.21,72.8076,11.007,100.106
5.25,73.2077,11.007,100.106
5.29,73.6078,11.007,100.107
5.33,74.0079,11.007,100.107
5.37,74.4079,11.007,100.108
5.41,74.808,11.007,100.109
5.45,75.2081,11.007,100.109
5.49,75.6081,11.007,100.11
5.53,76.0082,11.007,100.11
5.57,76.4083,11.007,100.11
5.61,76.8084,11.007,100.111
5.65,77.2084,11.007,100.111
5.69,77.6085,11.007,100.112
5.73,78.0086,11.007,100.112
5.77,78.4086,11.008,100.113
5.81,78.8087,11.008,100.114
5.85,79.2088,11.008,100.114
5.89,79.6089,11.008,100.115
5.93,80.0089,11.008,100.115
5.97,80.409,11.008,100.115
6.01,80.8091,11.008,100.116
6.05,81.2091,11.008,100.116
6.09,81.6092,11.008,100.117
6.13,82.0093,11.008,100.117
6.17,82.4094,11.008,100.118
6.21,82.8094,11.008,100.118
6.25,83.2095,11.008,100.118
6.29,83.6096,11.008,100.119
6.33,84.0096,11.008,100.12
6.37,84.4097,11.008,100.12
6.41,84.8098,11.008,100.12
6.45,85.2099,11.008,100.121
6.49,85.6099,11.008,100.121
6.53,86.01,11.009,100.122
6.57,86.4101,11.009,100.122
6.61,86.8101,11.009,100.123
6.65,87.2102,11.009,100.123
6.69,87.6103,11.009,100.124
6.73,88.0104,11.009,100.124
6.77,88.4104,11.009,100.124
6.81,88.8105,11.009,100.125
6.85,89.2106,11.009,100.125
6.89,89.6106,11.009,100.126
6.93,90.0107,11.009,100.126
6.97,90.4108,11.009,100.127
7.01,90.8109,11.009,100.127
7.05,91.2109,11.009,100.128
7.09,91.611,11.009,100.128
7.13,92.0111,11.009,100.129
7.17,92.4111,11.009,100.129
7.21,92.8112,11.009,100.129
7.25,93.2113,11.009,100.13
7.29,93.6114,11.009,100.13
7.33,94.0114,11.009,100.13
7.37,94.4115,11.009,100.13
7.41,94.8116,11.009,100.131
7.45,95.2116,11.01,100.131
7.49,95.6117,11.01,100.131
7.53,96.0118,11.01,100.132
7.57,96.4119,11.01,100.132
7.61,96.8119,11.01,100.132
7.65,97.212,11.01,100.133
7.7,97.6121,11.01,100.133
7.74,98.0121,11.01,100.133
7.78,98.4122,11.01,100.134
7.81,98.8123,11.01,100.134
7.85,99.2124,11.01,100.134
7.9,99.6124,11.01,100.135
7.94,100.013,11.01,100.135
7.98,100.413,11.01,100.136
8.01,100.813,11.01,100.136
8.05,101.213,11.01,100.136
8.1,101.613,11.01,100.136
8.14,102.013,11.01,100.137
8.18,102.413,11.01,100.137
8.21,102.813,11.01,100.137
8.25,103.213,11.01,100.137
8.3,103.613,11.01,100.138
8.34,104.013,11.01,100.138
8.38,104.413,11.01,100.138
8.41,104.813,11.01,100.138
8.45,105.213,11.01,100.138
8.49,105.614,11.01,100.138
8.53,106.014,11.01,100.139
8.57,106.414,11.01,100.139
8.61,106.814,11.01,100.139
8.65,107.214,11.01,100.139
8.69,107.614,11.01,100.139
8.73,108.014,11.01,100.139
8.77,108.414,11.01,100.139
8.81,108.814,11.01,100.14
8.85,109.214,11.01,100.14
8.89,109.614,11.01,100.14
8.93,110.014,11.01,100.14
8.97,110.414,11.011,100.14
9.01,110.814,11.011,100.14
9.05,111.215,11.011,100.14
9.09,111.615,11.011,100.14
9.13,112.015,11.011,100.14
9.17,112.415,11.011,100.141
9.21,112.815,11.011,100.141
9.25,113.215,11.011,100.141
9.29,113.615,11.011,100.141
9.33,114.015,11.011,100.141
9.37,114.415,11.011,100.141
9.41,114.815,11.011,100.141
9.45,115.215,11.011,100.141
9.49,115.615,11.011,100.142
9.53,116.015,11.011,100.142
9.57,116.415,11.011,100.142
9.61,116.816,11.011,100.142
9.65,117.216,11.011,100.142
9.69,117.616,11.011,100.143
9.73,118.016,11.011,100.143
9.77,118.416,11.011,100.144
9.81,118.816,11.011,100.144
9.85,119.216,11.011,100.144
9.89,119.616,11.011,100.144
9.93,120.016,11.011,100.144
9.97,120.416,11.011,100.144
10.01,120.816,11.011,100.144
10.05,121.216,11.011,100.144
10.09,121.616,11.011,100.144
10.13,122.016,11.011,100.144
10.17,122.417,11.011,100.143
10.21,122.817,11.011,100.143
10.25,123.217,11.011,100.143
10.29,123.617,11.011,100.143
10.33,124.017,11.011,100.143
10.37,124.417,11.011,100.143
10.41,124.817,11.011,100.143
10.45,125.217,11.011,100.143
10.49,125.617,11.011,100.143
10.53,126.017,11.011,100.142
10.57,126.417,11.011,100.142
10.61,126.817,11.011,100.142
10.65,127.217,11.011,100.142
10.69,127.617,11.011,100.142
10.73,128.018,11.011,100.142
10.77,128.418,11.011,100.142
10.81,128.818,11.011,100.142
10.85,129.218,11.011,100.142
10.89,129.618,11.011,100.142
10.93,130.018,11.011,100.142
10.97,130.418,11.011,100.142
11.01,130.818,11.011,100.142
11.05,131.218,11.011,100.142
11.09,131.618,11.011,100.142
11.13,132.018,11.011,100.142
11.17,132.418,11.011,100.142
11.21,132.818,11.011,100.142
11.25,133.218,11.011,100.142
11.29,133.619,11.011,100.142
11.33,134.019,11.011,100.142
11.37,134.419,11.011,100.142
11.41,134.819,11.011,100.142
11.45,135.219,11.011,100.142
11.49,135.619,11.011,100.142
11.53,136.019,11.011,100.143
11.57,136.419,11.011,100.143
11.61,136.819,11.011,100.143
11.65,137.219,11.011,100.143
11.69,137.619,11.011,100.143
11.73,138.019,11.011,100.143
11.77,138.419,11.011,100.143
11.81,138.819,11.011,100.143
11.85,139.22,11.011,100.143
11.89,139.62,11.011,100.143
11.93,140.02,11.011,100.143
11.97,140.42,11.011,100.142
12.01,140.82,11.011,100.143
12.05,141.22,11.011,100.143
12.09,141.62,11.011,100.143
12.13,142.02,11.011,100.143
12.18,142.42,11.011,100.143
12.22,142.82,11.011,100.143
12.25,143.22,11.011,100.143
12.3,143.62,11.011,100.143
12.33,144.02,11.011,100.143
12.38,144.42,11.011,100.143
12.42,144.821,11.011,100.143
12.45,145.221,11.011,100.143
12.5,145.621,11.011,100.143
12.53,146.021,11.011,100.143
12.57,146.421,11.011,100.143
12.61,146.821,11.011,100.143
12.65,147.221,11.011,100.143
12.69,147.621,11.011,100.143
12.73,148.021,11.011,100.143
12.78,148.421,11.011,100.144
12.82,148.821,11.011,100.144
12.85,149.221,11.011,100.144
12.9,149.621,11.011,100.144
12.93,150.021,11.011,100.144
12.98,150.422,11.011,100.144
13.02,150.822,11.011,100.144
13.05,151.222,11.011,100.144
13.1,151.622,11.011,100.144
13.13,152.022,11.011,100.143
13.18,152.422,11.011,100.143
13.22,152.822,11.011,100.143
13.25,153.222,11.011,100.143
13.3,153.622,11.011,100.142
13.33,154.022,11.011,100.141
13.37,154.422,11.011,100.141
13.41,154.822,11.01,100.14
13.45,155.222,11.01,100.139
13.49,155.622,11.01,100.138
13.53,156.023,11.01,100.137
13.57,156.423,11.01,100.136
13.61,156.823,11.01,100.135
13.65,157.223,11.01,100.134
13.69,157.623,11.01,100.133
13.73,158.023,11.01,100.133
13.77,158.423,11.01,100.132
13.81,158.823,11.01,100.131
13.85,159.223,11.009,100.13
13.89,159.623,11.009,100.129
13.93,160.023,11.009,100.129
13.97,160.423,11.009,100.128
14.01,160.823,11.009,100.128
14.05,161.223,11.009,100.127
14.09,161.624,11.009,100.126
14.13,162.024,11.009,100.126
14.17,162.424,11.009,100.125
14.21,162.824,11.009,100.125
14.25,163.224,11.009,100.124
14.29,163.624,11.009,100.124
14.33,164.024,11.009,100.123
14.37,164.424,11.009,100.123
14.41,164.824,11.009,100.122
14.45,165.224,11.009,100.122
14.49,165.624,11.008,100.122
14.53,166.024,11.008,100.121
14.57,166.424,11.008,100.121
14.61,166.824,11.008,100.121
14.65,167.225,11.008,100.12
14.69,167.625,11.008,100.12
14.73,168.025,11.008,100.119
14.77,168.425,11.008,100.119
14.81,168.825,11.008,100.119
14.85,169.225,11.008,100.118
14.89,169.625,11.008,100.118
14.93,170.025,11.008,100.117
14.97,170.425,11.008,100.117
15.01,170.825,11.008,100.117
15.05,171.225,11.008,100.116
15.09,171.625,11.008,100.116
15.13,172.025,11.008,100.116
15.17,172.425,11.008,100.115
15.21,172.826,11.008,100.115
15.25,173.226,11.008,100.114
15.29,173.626,11.008,100.114
15.33,174.026,11.008,100.113
15.37,174.426,11.008,100.113
15.41,174.826,11.008,100.113
15.45,175.226,11.007,100.112
15.49,175.626,11.007,100.112
15.53,176.026,11.007,100.112
15.57,176.426,11.007,100.111
15.61,176.826,11.007,100.111
15.65,177.226,11.007,100.11
15.69,177.626,11.007,100.11
15.73,178.026,11.007,100.109
15.77,178.427,11.007,100.109
15.81,178.827,11.007,100.109
15.85,179.227,11.007,100.108
15.89,179.627,11.007,100.108
15.93,180.027,11.007,100.107
15.97,180.427,11.007,100.107
16.01,180.827,11.007,100.106
16.05,181.227,11.007,100.106
16.1,181.627,11.007,100.105
16.13,182.027,11.007,100.105
16.18,182.427,11.007,100.104
16.22,182.827,11.007,100.104
16.26,183.227,11.007,100.104
16.3,183.627,11.006,100.103
16.34,184.028,11.006,100.103
16.38,184.428,11.006,100.102
16.42,184.828,11.006,100.102
16.46,185.228,11.006,100.101
16.5,185.628,11.006,100.101
16.54,186.028,11.006,100.1
16.58,186.428,11.006,100.1
16.62,186.828,11.006,100.1
16.66,187.228,11.006,100.099
16.7,187.628,11.006,100.099
16.74,188.028,11.006,100.098
16.78,188.428,11.006,100.098
16.82,188.828,11.006,100.097
16.86,189.228,11.006,100.096
16.9,189.629,11.006,100.096
16.94,190.029,11.006,100.095
16.98,190.429,11.006,100.095
17.02,190.829,11.006,100.094
17.06,191.229,11.005,100.094
17.11,191.629,11.005,100.093
17.14,192.029,11.005,100.093
17.18,192.429,11.005,100.092
17.22,192.829,11.005,100.092
17.26,193.229,11.005,100.092
17.3,193.629,11.005,100.091
17.34,194.029,11.005,100.091
17.38,194.429,11.005,100.09
17.43,194.829,11.005,100.09
17.47,195.23,11.005,100.089
17.51,195.63,11.005,100.089
17.55,196.03,11.005,100.089
17.59,196.43,11.005,100.088
17.63,196.83,11.005,100.088
17.68,197.23,11.005,100.087
17.71,197.63,11.005,100.086
17.75,198.03,11.005,100.086
17.79,198.43,11.004,100.085
17.83,198.83,11.004,100.084
17.87,199.23,11.004,100.084
17.91,199.63,11.004,100.083
17.95,200.03,11.004,100.082
17.98,200.43,11.004,100.081
18.03,200.831,11.004,100.08
18.06,201.231,11.004,100.08
18.1,201.631,11.004,100.079
18.14,202.031,11.004,100.078
18.18,202.431,11.004,100.078
18.22,202.831,11.004,100.077
18.26,203.231,11.004,100.076
18.3,203.631,11.003,100.076
18.34,204.031,11.003,100.075
18.38,204.431,11.003,100.074
18.42,204.831,11.003,100.074
18.46,205.231,11.003,100.073
18.5,205.631,11.003,100.072
18.54,206.031,11.003,100.071
18.58,206.432,11.003,100.071
18.62,206.832,11.003,100.07
18.66,207.232,11.003,100.069
18.7,207.632,11.003,100.068
18.74,208.032,11.003,100.068
18.78,208.432,11.002,100.067
18.82,208.832,11.002,100.066
18.86,209.232,11.002,100.065
18.91,209.632,11.002,100.064
18.94,210.032,11.002,100.064
18.98,210.432,11.002,100.063
19.03,210.832,11.002,100.062
19.07,211.232,11.002,100.061
19.11,211.632,11.002,100.061
19.14,212.033,11.002,100.06
19.18,212.433,11.002,100.059
19.22,212.833,11.002,100.058
19.26,213.233,11.001,100.057
19.3,213.633,11.001,100.057
19.34,214.033,11.001,100.056
19.38,214.433,11.001,100.055
19.42,214.833,11.001,100.055
19.46,215.233,11.001,100.054
19.5,215.633,11.001,100.053
19.54,216.033,11.001,100.052
19.58,216.433,11.001,100.051
19.62,216.833,11.001,100.051
19.66,217.233,11.001,100.05
19.7,217.634,11.001,100.049
19.74,218.034,11,100.049
19.78,218.434,11,100.048
19.82,218.834,11,100.047
19.86,219.234,11,100.046
19.9,219.634,11,100.045
19.94,220.034,11,100.044
19.98,220.434,11,100.044
20.02,220.834,11,100.043
20.06,221.234,11,100.042
20.1,221.634,11,100.041
20.14,222.034,11,100.04
20.18,222.434,10.999,100.039
20.22,222.834,10.999,100.038
20.26,223.235,10.999,100.037
20.3,223.635,10.999,100.036
20.34,224.035,10.999,100.036
20.38,224.435,10.999,100.035
20.42,224.835,10.999,100.034
20.46,225.235,10.999,100.033
20.5,225.635,10.999,100.032
20.54,226.035,10.999,100.031
20.58,226.435,10.998,100.03
20.62,226.835,10.998,100.029
20.66,227.235,10.998,100.029
20.7,227.635,10.998,100.028
20.74,228.035,10.998,100.027
20.78,228.435,10.998,100.026
20.82,228.836,10.998,100.025
20.86,229.236,10.998,100.024
20.9,229.636,10.998,100.023
20.94,230.036,10.998,100.022
20.98,230.436,10.997,100.021
21.03,230.836,10.997,100.02
21.07,231.236,10.997,100.02
21.11,231.636,10.997,100.019
21.15,232.036,10.997,100.018
21.19,232.436,10.997,100.017
21.23,232.836,10.997,100.016
21.27,233.236,10.997,100.015
21.31,233.636,10.997,100.014
21.35,234.036,10.997,100.013
21.38,234.437,10.996,100.012
21.43,234.837,10.996,100.011
21.47,235.237,10.996,100.01
21.51,235.637,10.996,100.009
21.54,236.037,10.996,100.008
21.58,236.437,10.996,100.007
21.62,236.837,10.996,100.006
21.67,237.237,10.996,100.005
21.71,237.637,10.996,100.004
21.75,238.037,10.995,100.003
21.79,238.437,10.995,100.002
21.83,238.837,10.995,100.001
21.87,239.237,10.995,100
21.91,239.637,10.995,99.999
21.95,240.038,10.995,99.998
21.99,240.438,10.995,99.997
22.03,240.838,10.995,99.996
22.07,241.238,10.995,99.995
22.11,241.638,10.994,99.994
22.15,242.038,10.994,99.993
22.19,242.438,10.994,99.992
22.23,242.838,10.994,99.991
22.27,243.238,10.994,99.989
22.31,243.638,10.994,99.988
22.35,244.038,10.994,99.987
22.38,244.438,10.994,99.986
22.42,244.838,10.993,99.985
22.46,245.238,10.993,99.984
22.5,245.639,10.993,99.983
22.54,246.039,10.993,99.982
22.58,246.439,10.993,99.98
22.62,246.839,10.993,99.979
22.66,247.239,10.993,99.978
22.7,247.639,10.993,99.977
22.74,248.039,10.992,99.975
22.78,248.439,10.992,99.974
22.82,248.839,10.992,99.973
22.86,249.239,10.992,99.972
22.9,249.639,10.992,99.97
22.94,250.039,10.992,99.969
22.98,250.439,10.992,99.968
23.02,250.839,10.991,99.967
23.06,251.24,10.991,99.966
23.1,251.64,10.991,99.965
23.14,252.04,10.991,99.963
23.18,252.44,10.991,99.962
23.22,252.84,10.991,99.961
23.26,253.24,10.991,99.96
23.3,253.64,10.991,99.958
23.34,254.04,10.99,99.957
23.38,254.44,10.99,99.956
23.42,254.84,10.99,99.954
23.46,255.24,10.99,99.953
23.5,255.64,10.99,99.952
23.54,256.04,10.99,99.95
23.58,256.44,10.99,99.949
23.62,256.841,10.989,99.948
23.66,257.241,10.989,99.946
23.7,257.641,10.989,99.945
23.74,258.041,10.989,99.943
23.78,258.441,10.989,99.942
23.83,258.841,10.989,99.941
23.87,259.241,10.988,99.939
23.91,259.641,10.988,99.938
23.95,260.041,10.988,99.937
23.99,260.441,10.988,99.935
24.03,260.841,10.988,99.934
24.07,261.241,10.988,99.933
24.11,261.641,10.988,99.931
24.14,262.041,10.987,99.93
24.18,262.442,10.987,99.928
24.22,262.842,10.987,99.927
24.26,263.242,10.987,99.925
24.3,263.642,10.987,99.924
24.34,264.042,10.987,99.922
24.38,264.442,10.986,99.921
24.43,264.842,10.986,99.919
24.47,265.242,10.986,99.918
24.51,265.642,10.986,99.917
24.54,266.042,10.986,99.915
24.58,266.442,10.986,99.913
24.63,266.842,10.985,99.912
24.67,267.242,10.985,99.91
24.71,267.642,10.985,99.909
24.75,268.043,10.985,99.907
24.79,268.443,10.985,99.906
24.83,268.843,10.985,99.904
24.87,269.243,10.984,99.902
24.91,269.643,10.984,99.901
24.95,270.043,10.984,99.899
24.99,270.443,10.984,99.898
25.03,270.843,10.984,99.896
25.07,271.243,10.984,99.894
25.11,271.643,10.983,99.893
25.15,272.043,10.983,99.891
25.19,272.443,10.983,99.89
25.23,272.843,10.983,99.888
25.27,273.243,10.983,99.887
25.31,273.644,10.982,99.885
25.35,274.044,10.982,99.884
25.39,274.444,10.982,99.882
25.43,274.844,10.982,99.88
25.47,275.244,10.982,99.879
25.51,275.644,10.982,99.877
25.55,276.044,10.981,99.875
25.59,276.444,10.981,99.873
25.63,276.844,10.981,99.872
25.67,277.244,10.981,99.87
25.71,277.644,10.981,99.868
25.75,278.044,10.98,99.866
25.79,278.444,10.98,99.865
25.83,278.844,10.98,99.863
25.87,279.245,10.98,99.861
25.91,279.645,10.98,99.86
25.95,280.045,10.98,99.858
25.99,280.445,10.979,99.856
26.03,280.845,10.979,99.855
26.07,281.245,10.979,99.853
26.11,281.645,10.979,99.851
26.15,282.045,10.979,99.85
26.19,282.445,10.978,99.848
26.23,282.845,10.978,99.846
26.27,283.245,10.978,99.844
26.31,283.645,10.978,99.843
26.35,284.045,10.978,99.841
26.39,284.445,10.977,99.839
26.43,284.846,10.977,99.838
26.47,285.246,10.977,99.836
26.51,285.646,10.977,99.834
26.55,286.046,10.977,99.832
26.59,286.446,10.976,99.831
26.63,286.846,10.976,99.829
26.67,287.246,10.976,99.827
26.71,287.646,10.976,99.825
26.75,288.046,10.976,99.823
26.79,288.446,10.976,99.822
26.83,288.846,10.975,99.82
26.87,289.246,10.975,99.818
26.91,289.646,10.975,99.817
26.94,290.046,10.975,99.815
26.98,290.447,10.975,99.813
27.02,290.847,10.974,99.811
27.06,291.247,10.974,99.809
27.1,291.647,10.974,99.807
27.14,292.047,10.974,99.805
27.18,292.447,10.974,99.803
27.22,292.847,10.973,99.802
27.26,293.247,10.973,99.8
27.3,293.647,10.973,99.798
27.33,294.047,10.973,99.796
27.38,294.447,10.972,99.794
27.42,294.847,10.972,99.792
27.46,295.247,10.972,99.79
27.49,295.647,10.972,99.788
27.53,296.048,10.972,99.786
27.58,296.448,10.971,99.784
27.62,296.848,10.971,99.782
27.66,297.248,10.971,99.781
27.7,297.648,10.971,99.779
27.74,298.048,10.971,99.777
27.78,298.448,10.97,99.775
27.82,298.848,10.97,99.773
27.86,299.248,10.97,99.771
27.89,299.648,10.97,99.769
27.94,300.048,10.97,99.767
27.98,300.448,10.969,99.765
28.02,300.848,10.969,99.763
28.06,301.248,10.969,99.761
28.1,301.649,10.969,99.759
28.14,302.049,10.968,99.757
28.18,302.449,10.968,99.755
28.22,302.849,10.968,99.753
28.26,303.249,10.968,99.751
28.3,303.649,10.967,99.748
28.34,304.049,10.967,99.746
28.38,304.449,10.967,99.744
28.43,304.849,10.967,99.742
28.47,305.249,10.967,99.74
28.51,305.649,10.966,99.738
28.55,306.049,10.966,99.736
28.59,306.449,10.966,99.734
28.63,306.849,10.966,99.732
28.67,307.25,10.965,99.73
28.71,307.65,10.965,99.728
28.75,308.05,10.965,99.725
28.79,308.45,10.965,99.723
28.83,308.85,10.964,99.721
28.87,309.25,10.964,99.719
28.91,309.65,10.964,99.717
28.94,310.05,10.964,99.715
28.98,310.45,10.964,99.712
29.02,310.85,10.963,99.71
29.07,311.25,10.963,99.708
29.11,311.65,10.963,99.706
29.14,312.05,10.963,99.704
29.19,312.45,10.962,99.701
29.23,312.851,10.962,99.699
29.27,313.251,10.962,99.697
29.31,313.651,10.962,99.694
29.35,314.051,10.961,99.692
29.39,314.451,10.961,99.69
29.43,314.851,10.961,99.688
29.47,315.251,10.961,99.685
29.51,315.651,10.96,99.683
29.54,316.051,10.96,99.681
29.58,316.451,10.96,99.679
29.63,316.851,10.96,99.676
29.67,317.251,10.959,99.674
29.71,317.651,10.959,99.672
29.74,318.051,10.959,99.669
29.78,318.452,10.959,99.667
29.83,318.852,10.958,99.665
29.87,319.252,10.958,99.662
29.91,319.652,10.958,99.66
29.94,320.052,10.958,99.658
29.98,320.452,10.957,99.656
30.03,320.852,10.957,99.653
30.07,321.252,10.957,99.651
30.11,321.652,10.956,99.648
30.15,322.052,10.956,99.646
30.19,322.452,10.956,99.644
30.23,322.852,10.956,99.641
30.27,323.252,10.955,99.639
30.31,323.652,10.955,99.636
30.35,324.053,10.955,99.634
30.39,324.453,10.955,99.631
30.43,324.853,10.954,99.629
30.47,325.253,10.954,99.627
30.52,325.653,10.954,99.624
30.56,326.053,10.954,99.622
30.59,326.453,10.953,99.62
30.63,326.853,10.953,99.617
30.67,327.253,10.953,99.615
30.71,327.653,10.952,99.612
30.75,328.053,10.952,99.61
30.79,328.453,10.952,99.607
30.83,328.853,10.952,99.605
30.87,329.253,10.951,99.602
30.91,329.654,10.951,99.599
30.95,330.054,10.951,99.597
30.99,330.454,10.951,99.595
31.03,330.854,10.95,99.592
31.07,331.254,10.95,99.59
31.11,331.654,10.95,99.587
31.15,332.054,10.949,99.585
31.19,332.454,10.949,99.582
31.23,332.854,10.949,99.58
31.27,333.254,10.949,99.577
31.31,333.654,10.948,99.575
31.35,334.054,10.948,99.572
31.39,334.454,10.948,99.569
31.43,334.854,10.947,99.567
31.47,335.255,10.947,99.564
31.51,335.655,10.947,99.562
31.55,336.055,10.947,99.56
31.59,336.455,10.946,99.557
31.63,336.855,10.946,99.554
31.67,337.255,10.946,99.552
31.71,337.655,10.946,99.549
31.75,338.055,10.945,99.547
31.79,338.455,10.945,99.544
31.83,338.855,10.945,99.542
31.87,339.255,10.944,99.539
31.91,339.655,10.944,99.537
31.95,340.055,10.944,99.534
31.99,340.455,10.944,99.531
32.03,340.856,10.943,99.529
32.07,341.256,10.943,99.526
32.11,341.656,10.943,99.523
32.15,342.056,10.942,99.521
32.19,342.456,10.942,99.518
32.23,342.856,10.942,99.516
32.27,343.256,10.942,99.514
32.31,343.656,10.941,99.511
32.34,344.056,10.941,99.508
32.38,344.456,10.941,99.506
32.43,344.856,10.94,99.503
32.47,345.256,10.94,99.5
32.51,345.656,10.94,99.498
32.55,346.056,10.94,99.495
32.59,346.457,10.939,99.492
32.63,346.857,10.939,99.489
32.67,347.257,10.939,99.487
32.72,347.657,10.938,99.484
32.76,348.057,10.938,99.481
32.8,348.457,10.938,99.478
32.84,348.857,10.937,99.476
32.88,349.257,10.937,99.473
32.92,349.657,10.937,99.47
32.96,350.057,10.937,99.468
32.99,350.457,10.936,99.465
33.03,350.857,10.936,99.462
33.08,351.257,10.936,99.46
33.12,351.657,10.935,99.457
33.16,352.058,10.935,99.454
33.21,352.458,10.935,99.451
33.25,352.858,10.934,99.448
33.29,353.258,10.934,99.445
33.34,353.658,10.934,99.442
33.38,354.058,10.933,99.439
33.42,354.458,10.933,99.437
33.45,354.858,10.933,99.434
33.49,355.258,10.933,99.432
33.53,355.658,10.932,99.429
33.57,356.058,10.932,99.427
33.61,356.458,10.932,99.424
33.64,356.858,10.931,99.421
33.68,357.258,10.931,99.419
33.72,357.659,10.931,99.416
33.76,358.059,10.931,99.413
33.8,358.459,10.93,99.41
33.84,358.859,10.93,99.407
33.88,359.259,10.93,99.405
33.92,359.659,10.929,99.402
33.96,360.059,10.929,99.399
34,360.459,10.929,99.396
34.04,360.859,10.928,99.394
34.08,361.259,10.928,99.391
34.12,361.659,10.928,99.388
34.15,362.059,10.928,99.385
34.19,362.459,10.927,99.382
34.23,362.859,10.927,99.379
34.27,363.26,10.927,99.376
34.31,363.66,10.926,99.374
34.35,364.06,10.926,99.371
34.39,364.46,10.926,99.368
34.43,364.86,10.925,99.365
34.47,365.26,10.925,99.362
34.51,365.66,10.925,99.36
34.54,366.06,10.924,99.357
34.58,366.46,10.924,99.354
34.62,366.86,10.924,99.351
34.66,367.26,10.923,99.348
34.7,367.66,10.923,99.345
34.74,368.06,10.923,99.343
34.78,368.46,10.922,99.34
34.82,368.861,10.922,99.337
34.86,369.261,10.922,99.334
34.9,369.661,10.922,99.331
34.94,370.061,10.921,99.328
34.98,370.461,10.921,99.325
35.02,370.861,10.921,99.322
35.06,371.261,10.92,99.319
35.1,371.661,10.92,99.316
35.14,372.061,10.92,99.313
35.18,372.461,10.919,99.311
35.22,372.861,10.919,99.308
35.26,373.261,10.919,99.305
35.31,373.661,10.918,99.302
35.34,374.061,10.918,99.299
35.39,374.462,10.918,99.296
35.43,374.862,10.917,99.292
35.47,375.262,10.917,99.289
35.51,375.662,10.917,99.286
35.55,376.062,10.916,99.283
35.59,376.462,10.916,99.28
35.63,376.862,10.916,99.277
35.67,377.262,10.915,99.274
35.71,377.662,10.915,99.271
35.75,378.062,10.915,99.268
35.79,378.462,10.914,99.265
35.83,378.862,10.914,99.262
35.87,379.262,10.914,99.259
35.91,379.662,10.913,99.256
35.95,380.063,10.913,99.253
35.99,380.463,10.913,99.25
36.03,380.863,10.912,99.247
36.07,381.263,10.912,99.244
36.11,381.663,10.912,99.24
36.16,382.063,10.911,99.237
36.2,382.463,10.911,99.234
36.24,382.863,10.911,99.231
36.28,383.263,10.91,99.228
36.32,383.663,10.91,99.225
36.36,384.063,10.91,99.222
36.39,384.463,10.909,99.219
36.43,384.863,10.909,99.216
36.47,385.263,10.909,99.212
36.51,385.664,10.908,99.209
36.55,386.064,10.908,99.206
36.59,386.464,10.907,99.202
36.63,386.864,10.907,99.199
36.67,387.264,10.907,99.196
36.71,387.664,10.906,99.192
36.75,388.064,10.906,99.189
36.79,388.464,10.906,99.186
36.83,388.864,10.905,99.182
36.87,389.264,10.905,99.179
36.91,389.664,10.905,99.176
36.95,390.064,10.904,99.173
36.99,390.464,10.904,99.169
37.03,390.864,10.903,99.166
37.07,391.265,10.903,99.162
37.11,391.665,10.903,99.159
37.15,392.065,10.902,99.155
37.19,392.465,10.902,99.152
37.23,392.865,10.901,99.148
37.27,393.265,10.901,99.145
37.31,393.665,10.901,99.141
37.35,394.065,10.9,99.138
37.39,394.465,10.9,99.134
37.43,394.865,10.9,99.13
37.47,395.265,10.899,99.127
37.51,395.665,10.899,99.123
37.55,396.065,10.898,99.119
37.59,396.465,10.898,99.116
37.63,396.866,10.897,99.112
37.67,397.266,10.897,99.108
37.71,397.666,10.897,99.105
37.75,398.066,10.896,99.101
37.79,398.466,10.896,99.097
37.83,398.866,10.895,99.094
37.87,399.266,10.895,99.09
37.91,399.666,10.895,99.087
37.95,400.066,10.894,99.083
37.99,400.466,10.894,99.079
38.03,400.866,10.893,99.075
38.07,401.266,10.893,99.072
38.11,401.666,10.893,99.068
38.15,402.066,10.892,99.064
38.19,402.467,10.892,99.06
38.23,402.867,10.891,99.056
38.27,403.267,10.891,99.052
38.31,403.667,10.891,99.049
38.35,404.067,10.89,99.045
38.39,404.467,10.89,99.041
38.43,404.867,10.889,99.037
38.47,405.267,10.889,99.033
38.51,405.667,10.888,99.029
38.55,406.067,10.888,99.024
38.59,406.467,10.887,99.02
38.63,406.867,10.887,99.016
38.67,407.267,10.887,99.012
38.71,407.667,10.886,99.008
38.75,408.068,10.886,99.004
38.79,408.468,10.885,99
38.83,408.868,10.885,98.995
38.87,409.268,10.884,98.991
38.91,409.668,10.884,98.987
38.95,410.068,10.883,98.983
38.99,410.468,10.883,98.979
39.03,410.868,10.882,98.975
39.06,411.268,10.882,98.97
39.11,411.668,10.881,98.966
39.14,412.068,10.881,98.962
39.18,412.468,10.88,98.957
39.22,412.868,10.88,98.953
39.26,413.268,10.879,98.948
39.3,413.669,10.879,98.944
39.34,414.069,10.878,98.939
39.38,414.469,10.878,98.934
39.43,414.869,10.877,98.929
39.47,415.269,10.877,98.924
39.51,415.669,10.876,98.92
39.55,416.069,10.876,98.915
39.59,416.469,10.875,98.91
39.63,416.869,10.875,98.906
39.67,417.269,10.874,98.901
39.71,417.669,10.874,98.896
39.75,418.069,10.873,98.891
39.79,418.469,10.873,98.885
39.83,418.869,10.872,98.88
39.87,419.27,10.871,98.875
39.91,419.67,10.871,98.87
39.95,420.07,10.87,98.865
39.99,420.47,10.87,98.859
40.03,420.87,10.869,98.853
40.07,421.27,10.868,98.848
40.11,421.67,10.868,98.842
40.16,422.07,10.867,98.836
40.2,422.47,10.866,98.83
40.24,422.87,10.866,98.824
40.28,423.27,10.865,98.818
40.31,423.67,10.864,98.811
40.36,424.07,10.864,98.805
40.39,424.47,10.863,98.799
40.44,424.871,10.862,98.792
40.48,425.271,10.862,98.785
40.52,425.671,10.861,98.778
40.56,426.071,10.86,98.772
40.6,426.471,10.859,98.765
40.64,426.871,10.859,98.758
40.68,427.271,10.858,98.75
40.72,427.671,10.857,98.743
40.76,428.071,10.856,98.736
40.79,428.471,10.855,98.729
40.83,428.871,10.855,98.722
40.87,429.271,10.854,98.715
40.91,429.671,10.853,98.707
40.95,430.071,10.852,98.699
40.99,430.472,10.851,98.69
41.03,430.872,10.85,98.682
41.07,431.272,10.849,98.674
41.11,431.672,10.848,98.666
41.14,432.072,10.848,98.658
41.18,432.472,10.847,98.649
41.22,432.872,10.846,98.641
41.26,433.272,10.845,98.632
41.3,433.672,10.844,98.623
41.34,434.072,10.843,98.614
41.38,434.472,10.842,98.604
41.43,434.872,10.841,98.595
41.46,435.272,10.84,98.585
41.5,435.672,10.839,98.577
41.54,436.073,10.838,98.567
41.58,436.473,10.837,98.558
41.62,436.873,10.835,98.547
41.66,437.273,10.834,98.537
41.7,437.673,10.833,98.526
41.74,438.073,10.832,98.515
41.78,438.473,10.831,98.504
41.82,438.873,10.829,98.493
41.86,439.273,10.828,98.481
41.9,439.673,10.827,98.469
41.94,440.073,10.826,98.458
41.99,440.473,10.824,98.445
42.03,440.873,10.823,98.433
42.06,441.273,10.821,98.421
42.11,441.674,10.82,98.408
42.15,442.074,10.819,98.395
42.19,442.474,10.817,98.381
42.23,442.874,10.816,98.368
42.27,443.274,10.814,98.354
42.31,443.674,10.813,98.34
42.35,444.074,10.811,98.326
42.39,444.474,10.81,98.312
42.43,444.874,10.808,98.297
42.47,445.274,10.806,98.281
42.51,445.674,10.804,98.266
42.55,446.074,10.803,98.251
42.59,446.474,10.801,98.235
42.63,446.874,10.799,98.218
42.67,447.275,10.797,98.201
42.71,447.675,10.795,98.184
42.75,448.075,10.793,98.165
42.79,448.475,10.791,98.148
42.83,448.875,10.789,98.129
42.87,449.275,10.787,98.11
42.91,449.675,10.785,98.091
42.95,450.075,10.783,98.071
42.99,450.475,10.781,98.051
43.03,450.875,10.778,98.03
43.07,451.275,10.776,98.009
43.11,451.675,10.774,97.987
43.15,452.075,10.771,97.965
43.19,452.475,10.769,97.942
43.23,452.876,10.766,97.919
43.27,453.276,10.764,97.895
43.31,453.676,10.761,97.87
43.35,454.076,10.758,97.845
43.39,454.476,10.755,97.819
43.43,454.876,10.752,97.791
43.47,455.276,10.749,97.764
43.51,455.676,10.746,97.736
43.55,456.076,10.743,97.707
43.59,456.476,10.74,97.678
43.63,456.876,10.737,97.648
43.67,457.276,10.733,97.617
43.71,457.676,10.73,97.585
43.75,458.076,10.726,97.552
43.79,458.477,10.722,97.519
43.83,458.877,10.718,97.484
43.87,459.277,10.715,97.448
43.91,459.677,10.711,97.413
43.95,460.077,10.706,97.374
43.99,460.477,10.702,97.332
44.03,460.877,10.697,97.287
44.07,461.277,10.691,97.238
44.11,461.677,10.686,97.187
44.15,462.077,10.68,97.134
44.19,462.477,10.674,97.078
44.23,462.877,10.668,97.021
44.27,463.277,10.661,96.957
44.31,463.677,10.653,96.89
44.35,464.078,10.646,96.821
44.39,464.478,10.638,96.752
44.43,464.878,10.63,96.682
44.47,465.278,10.623,96.615
44.51,465.678,10.615,96.543
44.55,466.078,10.607,96.47
44.59,466.478,10.599,96.397
44.63,466.878,10.591,96.32
44.67,467.278,10.582,96.241
44.71,467.678,10.573,96.159
44.75,468.078,10.564,96.078
44.79,468.478,10.554,95.991
44.83,468.878,10.544,95.901
44.87,469.278,10.534,95.809
44.91,469.679,10.524,95.715
44.95,470.079,10.513,95.615
44.99,470.479,10.502,95.512
45.03,470.879,10.49,95.407
45.07,471.279,10.478,95.298
45.11,471.679,10.466,95.187
45.15,472.079,10.453,95.073
45.19,472.479,10.44,94.955
45.23,472.879,10.427,94.834
45.27,473.279,10.413,94.709
45.31,473.679,10.399,94.581
45.35,474.079,10.385,94.454
45.39,474.479,10.37,94.317
45.43,474.879,10.355,94.174
45.47,475.28,10.338,94.026
45.51,475.68,10.322,93.874
45.55,476.08,10.304,93.711
45.59,476.48,10.286,93.551
45.63,476.88,10.268,93.386
45.67,477.28,10.249,93.215
45.71,477.68,10.229,93.036
45.75,478.08,10.21,92.856
45.79,478.48,10.188,92.66
45.83,478.88,10.167,92.468
45.87,479.28,10.145,92.269
45.91,479.68,10.122,92.061
45.95,480.08,10.099,91.846
45.99,480.48,10.074,91.624
46.03,480.881,10.049,91.398
46.07,481.281,10.024,91.165
46.11,481.681,9.997,90.922
46.15,482.081,9.969,90.669
46.19,482.481,9.941,90.411
46.23,482.881,9.912,90.146
46.27,483.281,9.88,89.861
46.31,483.681,9.849,89.577
46.35,484.081,9.814,89.257
46.39,484.481,9.78,88.946
46.43,484.881,9.744,88.622
46.47,485.281,9.711,88.325
46.51,485.681,9.676,88.007
46.55,486.081,9.639,87.665
46.59,486.482,9.599,87.306
46.63,486.882,9.558,86.931
46.67,487.282,9.515,86.543
46.71,487.682,9.471,86.138
46.75,488.082,9.425,85.716
46.79,488.482,9.375,85.265
46.83,488.882,9.334,84.892
46.87,489.282,9.29,84.488
46.91,489.682,9.244,84.07
46.95,490.082,9.196,83.638
46.99,490.482,9.146,83.186
47.03,490.882,9.095,82.721
47.07,491.282,9.042,82.241
47.11,491.682,8.988,81.745
47.15,492.083,8.935,81.262
47.19,492.483,8.875,80.721
47.23,492.883,8.816,80.179
47.27,493.283,8.755,79.622
47.31,493.683,8.692,79.051
47.35,494.083,8.628,78.468
47.39,494.483,8.562,77.869
47.43,494.883,8.491,77.223
47.47,495.283,8.421,76.591
47.51,495.683,8.351,75.95
47.55,496.083,8.278,75.284
47.59,496.483,8.204,74.614
47.64,496.883,8.125,73.9
47.68,497.283,8.044,73.16
47.72,497.684,7.963,72.426
47.76,498.084,7.876,71.629
47.79,498.484,7.797,70.91
47.83,498.884,7.714,70.163
47.87,499.284,7.631,69.407
47.91,499.684,7.546,68.63
47.94,500.084,7.454,67.794
47.98,500.484,7.363,66.965
48.02,500.884,7.267,66.094
48.06,501.284,7.167,65.185
48.1,501.684,7.068,64.283
48.14,502.084,6.964,63.34
48.18,502.484,6.853,62.324
48.22,502.884,6.741,61.31
48.26,503.285,6.628,60.282
48.3,503.685,6.505,59.16
48.34,504.085,6.39,58.117
48.38,504.485,6.272,57.039
48.42,504.885,6.156,55.993
48.46,505.285,6.029,54.834
48.5,505.685,5.904,53.7
48.54,506.085,5.78,52.566
48.58,506.485,5.653,51.417
48.62,506.885,5.527,50.267
48.66,507.285,5.4,49.117
48.71,507.685,5.267,47.9
48.74,508.085,5.134,46.696
48.79,508.485,5,45.477
48.83,508.886,4.864,44.242
48.86,509.286,4.726,42.984
48.91,509.686,4.582,41.673
48.95,510.086,4.443,40.411
48.99,510.486,4.303,39.135
49.03,510.886,4.16,37.831
49.07,511.286,4.012,36.489
49.11,511.686,3.864,35.145
49.15,512.086,3.706,33.706
49.19,512.486,3.548,32.266
49.23,512.886,3.408,30.993
49.27,513.286,3.266,29.707
49.31,513.686,3.131,28.478
49.35,514.086,2.995,27.241
49.39,514.487,2.856,25.972
49.43,514.887,2.716,24.698
49.47,515.287,2.574,23.413
49.51,515.687,2.434,22.141
49.55,516.087,2.299,20.909
49.59,516.487,2.166,19.701
49.63,516.887,2.033,18.486
49.67,517.287,1.903,17.31
49.71,517.687,1.776,16.149
49.75,518.087,1.658,15.076
49.79,518.487,1.539,13.996
49.83,518.887,1.422,12.932
49.87,519.287,1.308,11.9
49.91,519.687,1.199,10.908
49.95,520.088,1.09,9.916
49.99,520.488,0.9920000,9.024
50.03,520.888,0.9030000,8.21
50.07,521.288,0.8150000,7.409
50.11,521.688,0.7320000,6.657
50.15,522.088,0.6550000,5.96
50.19,522.488,0.5880000,5.346
50.23,522.888,0.5210000,4.736
50.27,523.288,0.4630000,4.21
50.31,523.688,0.4090000,3.717
50.35,524.088,0.3630000,3.303
50.39,524.488,0.3230000,2.938
50.43,524.888,0.2870000,2.609
50.47,525.288,0.2580000,2.351
50.51,525.689,0.2330000,2.121
50.54,526.089,0.2140000,1.944
50.58,526.489,0.1970000,1.793
50.62,526.889,0.1830000,1.667
50.66,527.289,0.1730000,1.574
50.7,527.689,0.1650000,1.503
50.74,528.089,0.1600000,1.452
50.78,528.489,0.1560000,1.418
50.82,528.889,0.1540000,1.397
50.86,529.289,0.1510000,1.376
50.9,529.689,0.1490000,1.356
50.94,530.089,0.1470000,1.337
50.98,530.489,0.1450000,1.32
51.02,530.889,0.1440000,1.306
51.06,531.29,0.1420000,1.292
51.11,531.69,0.1410000,1.281
51.14,532.09,0.1400000,1.272
51.19,532.49,0.1390000,1.264
51.23,532.89,0.1380000,1.257
51.27,533.29,0.1380000,1.251
51.31,533.69,0.1370000,1.247
51.35,534.09,0.1370000,1.242
51.39,534.49,0.1360000,1.239
51.43,534.89,0.1360000,1.236
51.48,535.29,0.1360000,1.234
51.51,535.69,0.1350000,1.232
51.56,536.09,0.1350000,1.23
51.59,536.49,0.1350000,1.229
51.63,536.891,0.1350000,1.228
51.67,537.291,0.1350000,1.227
51.71,537.691,0.1350000,1.226
51.75,538.091,0.1350000,1.225
51.79,538.491,0.1350000,1.224
51.83,538.891,0.1350000,1.224
51.87,539.291,0.1350000,1.223
51.91,539.691,0.1340000,1.223
51.95,540.091,0.1340000,1.222
51.99,540.491,0.1340000,1.222
52.03,540.891,0.1340000,1.222
52.07,541.291,0.1340000,1.221
52.11,541.691,0.1340000,1.221
52.15,542.091,0.1340000,1.221
52.19,542.492,0.1340000,1.22
52.23,542.892,0.1340000,1.22
52.27,543.292,0.1340000,1.22
52.31,543.692,0.1340000,1.22
52.35,544.092,0.1340000,1.219
52.39,544.492,0.1340000,1.219
52.43,544.892,0.1340000,1.219
52.47,545.292,0.1340000,1.219
52.51,545.692,0.1340000,1.219
52.55,546.092,0.1340000,1.218
52.59,546.492,0.1340000,1.218
52.63,546.892,0.1340000,1.218
52.67,547.292,0.1340000,1.218
52.71,547.692,0.1340000,1.218
52.75,548.093,0.1340000,1.217
52.79,548.493,0.1340000,1.217
52.83,548.893,0.1340000,1.217
52.87,549.293,0.1340000,1.217
52.91,549.693,0.1340000,1.217
52.95,550.093,0.1340000,1.217
52.99,550.493,0.1340000,1.216
53.03,550.893,0.1340000,1.216
53.07,551.293,0.1340000,1.216
53.11,551.693,0.1340000,1.216
53.15,552.093,0.1340000,1.216
53.19,552.493,0.1340000,1.215
53.23,552.893,0.1340000,1.215
53.26,553.293,0.1340000,1.215
53.31,553.694,0.1340000,1.215
53.35,554.094,0.1340000,1.215
53.39,554.494,0.1340000,1.215
53.43,554.894,0.1340000,1.214
53.47,555.294,0.1330000,1.214
53.51,555.694,0.1330000,1.214
53.55,556.094,0.1330000,1.214
53.59,556.494,0.1330000,1.213
53.63,556.894,0.1330000,1.213
53.67,557.294,0.1330000,1.213
53.71,557.694,0.1330000,1.213
53.75,558.094,0.1330000,1.213
53.79,558.494,0.1330000,1.212
53.83,558.894,0.1330000,1.212
53.87,559.295,0.1330000,1.212
53.91,559.695,0.1330000,1.212
53.95,560.095,0.1330000,1.212
53.99,560.495,0.1330000,1.211
54.03,560.895,0.1330000,1.211
54.07,561.295,0.1330000,1.211
54.11,561.695,0.1330000,1.211
54.16,562.095,0.1330000,1.21
54.2,562.495,0.1330000,1.21
54.24,562.895,0.1330000,1.21
54.28,563.295,0.1330000,1.21
54.32,563.695,0.1330000,1.21
54.36,564.095,0.1330000,1.209
54.4,564.495,0.1330000,1.209
54.44,564.896,0.1330000,1.209
54.48,565.296,0.1330000,1.209
54.52,565.696,0.1330000,1.209
54.56,566.096,0.1330000,1.208
54.6,566.496,0.1330000,1.208
54.64,566.896,0.1330000,1.208
54.68,567.296,0.1330000,1.208
54.72,567.696,0.1330000,1.208
54.76,568.096,0.1330000,1.208
54.79,568.496,0.1330000,1.208
54.84,568.896,0.1330000,1.207
54.88,569.296,0.1330000,1.207
54.91,569.696,0.1330000,1.207
54.96,570.096,0.1330000,1.207
54.99,570.497,0.1330000,1.206
55.03,570.897,0.1330000,1.206
55.07,571.297,0.1330000,1.206
55.11,571.697,0.1330000,1.206
55.15,572.097,0.1330000,1.206
55.19,572.497,0.1330000,1.206
55.23,572.897,0.1330000,1.205
55.27,573.297,0.1330000,1.205
55.31,573.697,0.1330000,1.205
55.35,574.097,0.1320000,1.205
55.39,574.497,0.1320000,1.205
55.43,574.897,0.1320000,1.205
55.47,575.297,0.1320000,1.204
55.51,575.697,0.1320000,1.204
55.55,576.098,0.1320000,1.204
55.59,576.498,0.1320000,1.204
55.63,576.898,0.1320000,1.203
55.66,577.298,0.1320000,1.203
55.71,577.698,0.1320000,1.203
55.74,578.098,0.1320000,1.202
55.79,578.498,0.1320000,1.202
55.83,578.898,0.1320000,1.202
55.87,579.298,0.1320000,1.202
55.91,579.698,0.1320000,1.201
55.95,580.098,0.1320000,1.201
55.99,580.498,0.1320000,1.201
56.03,580.898,0.1320000,1.201
56.07,581.298,0.1320000,1.2
56.11,581.699,0.1320000,1.2
56.15,582.099,0.1320000,1.2
56.19,582.499,0.1320000,1.2
56.23,582.899,0.1320000,1.199
56.27,583.299,0.1320000,1.199
56.31,583.699,0.1320000,1.199
56.35,584.099,0.1320000,1.198
56.39,584.499,0.1320000,1.198
56.44,584.899,0.1320000,1.197
56.48,585.299,0.1320000,1.197
56.52,585.699,0.1320000,1.196
56.56,586.099,0.1320000,1.196
56.6,586.499,0.1310000,1.196
56.64,586.899,0.1310000,1.195
56.68,587.3,0.1310000,1.195
56.72,587.7,0.1310000,1.194
56.76,588.1,0.1310000,1.194
56.79,588.5,0.1310000,1.193
56.83,588.9,0.1310000,1.193
56.88,589.3,0.1310000,1.192
56.91,589.7,0.1310000,1.192
56.95,590,0.1310000,1.192