File: R/rHDPE_App/app/www/Output/TGA/Condensed_Data/Resin3_2_.csv
0.9100000,30,12.384,100.036,0.0009798
0.9800000,30.5001,12.384,100.038,0.0049923
1.04,31.0002,12.385,100.04,0.0063166
1.1,31.5003,12.385,100.042,0.0004324
1.16,32.0004,12.385,100.043,-0.0001067
1.21,32.5004,12.385,100.045,0.0062007
1.27,33.0005,12.385,100.046,0.0015598
1.33,33.5006,12.386,100.047,0.0006182
1.38,34.0007,12.386,100.048,0.0051057
1.44,34.5008,12.386,100.05,-0.0007608
1.49,35.0009,12.386,100.051,0.0052398
1.55,35.501,12.386,100.051,-0.0002004
1.6,36.0011,12.386,100.052,0.0030414
1.66,36.5012,12.386,100.053,0.0004963
1.71,37.0013,12.386,100.054,0.0014326
1.77,37.5013,12.387,100.055,0.0034945
1.82,38.0014,12.387,100.056,-0.0000981
1.87,38.5015,12.387,100.057,0.0032287
1.93,39.0016,12.387,100.058,0.0013181
1.98,39.5017,12.387,100.059,0.0004384
2.03,40.0018,12.387,100.06,0.0023346
2.08,40.5019,12.387,100.061,0.0021833
2.14,41.002,12.387,100.061,-0.0003873
2.19,41.5021,12.387,100.062,0.0025598
2.24,42.0021,12.388,100.063,0.0027478
2.3,42.5022,12.388,100.064,0.0006737
2.35,43.0023,12.388,100.065,0.0012015
2.4,43.5024,12.388,100.066,0.0027349
2.45,44.0025,12.388,100.067,0.0016294
2.51,44.5026,12.388,100.068,0.0011482
2.56,45.0027,12.388,100.069,0.0015293
2.61,45.5028,12.388,100.069,0.0022437
2.66,46.0029,12.388,100.07,0.0023844
2.71,46.5029,12.389,100.071,0.0013811
2.77,47.003,12.389,100.072,0.0011418
2.82,47.5031,12.389,100.073,0.0025189
2.87,48.0032,12.389,100.074,0.0024670
2.92,48.5033,12.389,100.075,0.0012797
2.98,49.0034,12.389,100.076,0.0011842
3.03,49.5035,12.389,100.076,0.0022706
3.08,50.0036,12.389,100.077,0.0018915
3.13,50.5037,12.389,100.078,0.0009449
3.18,51.0038,12.389,100.079,0.0018867
3.23,51.5038,12.39,100.08,0.0013190
3.28,52.0039,12.39,100.081,0.0015994
3.34,52.504,12.39,100.082,0.0024435
3.39,53.0041,12.39,100.083,0.0021591
3.44,53.5042,12.39,100.084,0.0013131
3.49,54.0043,12.39,100.084,0.0012651
3.54,54.5044,12.39,100.085,0.0015918
3.59,55.0045,12.39,100.086,0.0011692
3.64,55.5046,12.39,100.087,0.0016823
3.69,56.0046,12.391,100.088,0.0019136
3.74,56.5047,12.391,100.088,0.0020517
3.79,57.0048,12.391,100.089,0.0010713
3.84,57.5049,12.391,100.09,0.0013498
3.9,58.005,12.391,100.091,0.0013024
3.95,58.5051,12.391,100.091,0.0018123
4,59.0052,12.391,100.092,0.0014397
4.05,59.5053,12.391,100.093,0.0010216
4.1,60.0054,12.391,100.093,0.0015306
4.15,60.5054,12.391,100.094,0.0011590
4.2,61.0055,12.391,100.095,0.0012044
4.25,61.5056,12.392,100.096,0.0011575
4.3,62.0057,12.392,100.096,0.0012965
4.35,62.5058,12.392,100.097,0.0020816
4.4,63.0059,12.392,100.098,0.0015725
4.45,63.506,12.392,100.098,0.0013863
4.5,64.0061,12.392,100.099,0.0020307
4.55,64.5062,12.392,100.1,0.0013383
4.6,65.0063,12.392,100.101,0.0009219
4.65,65.5063,12.392,100.101,0.0016590
4.7,66.0064,12.392,100.102,0.0021184
4.75,66.5065,12.392,100.103,0.0010129
4.81,67.0066,12.392,100.103,0.0012889
4.86,67.5067,12.393,100.104,0.0016109
4.91,68.0068,12.393,100.105,0.0014249
4.96,68.5069,12.393,100.105,0.0010108
5.01,69.007,12.393,100.106,0.0012860
5.06,69.5071,12.393,100.107,0.0011025
5.11,70.0071,12.393,100.107,0.0016078
5.16,70.5072,12.393,100.108,0.0012856
5.21,71.0073,12.393,100.109,0.0011018
5.26,71.5074,12.393,100.109,0.0012400
5.31,72.0075,12.393,100.11,0.0014240
5.36,72.5076,12.393,100.11,0.0006433
5.41,73.0077,12.393,100.111,0.0007811
5.46,73.5078,12.393,100.111,0.0012863
5.51,74.0079,12.394,100.112,0.0010559
5.56,74.5079,12.394,100.113,0.0018812
5.61,75.008,12.394,100.113,0.0015594
5.66,75.5081,12.394,100.114,0.0006878
5.71,76.0082,12.394,100.114,0.0008250
5.76,76.5083,12.394,100.115,0.0006873
5.81,77.0084,12.394,100.115,0.0010076
5.86,77.5085,12.394,100.116,0.0005040
5.91,78.0086,12.394,100.116,0.0006415
5.96,78.5087,12.394,100.116,0.0007787
6.01,79.0088,12.394,100.117,0.0012823
6.06,79.5088,12.394,100.117,0.0009163
6.11,80.0089,12.394,100.118,0.0017863
6.16,80.509,12.394,100.118,0.0009615
6.21,81.0091,12.394,100.119,0.0010069
6.26,81.5092,12.394,100.119,0.0009615
6.31,82.0093,12.395,100.12,0.0008702
6.36,82.5094,12.395,100.12,0.0010987
6.41,83.0095,12.395,100.121,0.0006406
6.46,83.5096,12.395,100.121,0.0010069
6.51,84.0096,12.395,100.122,0.0015103
6.56,84.5097,12.395,100.122,0.0012822
6.61,85.0098,12.395,100.122,0.0008703
6.66,85.5099,12.395,100.123,0.0005955
6.71,86.01,12.395,100.123,0.0009162
6.76,86.5101,12.395,100.124,0.0013283
6.81,87.0102,12.395,100.124,0.0003205
6.86,87.5103,12.395,100.125,0.0008699
6.91,88.0104,12.395,100.125,0.0011899
6.96,88.5104,12.395,100.125,0.0010070
7.01,89.0105,12.395,100.126,0.0010521
7.06,89.5106,12.395,100.126,0.0010523
7.11,90.0107,12.395,100.127,0.0003204
7.16,90.5108,12.395,100.127,0.0004119
7.21,91.0109,12.395,100.128,0.0001830
7.26,91.511,12.396,100.128,0.0006405
7.31,92.0111,12.396,100.128,0.0010521
7.36,92.5112,12.396,100.129,0.0007776
7.41,93.0113,12.396,100.129,-0.0000458
7.46,93.5113,12.396,100.129,0.0005490
7.51,94.0114,12.396,100.129,0.0010525
7.56,94.5115,12.396,100.13,0.0004575
7.61,95.0116,12.396,100.13,0.0000915
7.66,95.5117,12.396,100.13,-0.0005492
7.71,96.0118,12.396,100.13,0.0002747
7.76,96.5119,12.396,100.131,0.0002290
7.81,97.012,12.396,100.131,0.0009158
7.86,97.5121,12.396,100.131,0.0006407
7.91,98.0121,12.396,100.132,0.0001373
7.96,98.5122,12.396,100.132,0.0004118
8.01,99.0123,12.396,100.132,0.0011443
8.06,99.5124,12.396,100.132,-0.0010070
8.11,100.013,12.396,100.132,0.0000458
8.16,100.513,12.396,100.133,0.0005955
8.21,101.013,12.396,100.133,-0.0000458
8.26,101.513,12.396,100.133,0.0004582
8.31,102.013,12.396,100.133,0.0008247
8.36,102.513,12.396,100.133,0.0000000
8.41,103.013,12.396,100.133,0.0001374
8.46,103.513,12.396,100.133,0.0001374
8.51,104.013,12.396,100.134,0.0005495
8.56,104.513,12.396,100.134,0.0003664
8.61,105.013,12.396,100.134,0.0001831
8.66,105.513,12.396,100.134,0.0006408
8.71,106.014,12.396,100.135,0.0002748
8.76,106.514,12.396,100.135,0.0000000
8.81,107.014,12.396,100.135,0.0004579
8.86,107.514,12.396,100.135,0.0006409
8.91,108.014,12.396,100.135,0.0004120
8.96,108.514,12.396,100.135,0.0000458
9.01,109.014,12.396,100.136,0.0005496
9.06,109.514,12.397,100.136,0.0001374
9.11,110.014,12.397,100.136,0.0001831
9.16,110.514,12.397,100.136,0.0004577
9.21,111.014,12.397,100.136,0.0000458
9.26,111.515,12.397,100.136,-0.0000457
9.31,112.015,12.397,100.136,0.0001830
9.36,112.515,12.397,100.137,0.0003203
9.41,113.015,12.397,100.137,-0.0001374
9.46,113.515,12.397,100.137,0.0003661
9.51,114.015,12.397,100.137,0.0006409
9.56,114.515,12.397,100.137,-0.0002748
9.61,115.015,12.397,100.137,-0.0002289
9.66,115.515,12.397,100.137,0.0007327
9.71,116.015,12.397,100.137,-0.0003664
9.76,116.515,12.397,100.137,0.0000916
9.81,117.016,12.397,100.137,0.0002749
9.86,117.516,12.397,100.137,0.0004124
9.91,118.016,12.397,100.137,0.0000458
9.96,118.516,12.397,100.137,-0.0002749
10.01,119.016,12.397,100.138,0.0002291
10.06,119.516,12.397,100.138,0.0000458
10.11,120.016,12.397,100.138,0.0002749
10.16,120.516,12.397,100.138,0.0005042
10.21,121.016,12.397,100.138,-0.0000917
10.26,121.516,12.397,100.138,0.0001833
10.31,122.016,12.397,100.138,0.0003210
10.36,122.517,12.397,100.138,0.0000000
10.41,123.017,12.397,100.138,0.0000000
10.46,123.517,12.397,100.138,0.0005962
10.51,124.017,12.397,100.138,0.0004585
10.56,124.517,12.397,100.138,0.0003209
10.61,125.017,12.397,100.138,0.0002292
10.66,125.517,12.397,100.139,0.0004128
10.71,126.017,12.397,100.139,0.0002752
10.76,126.517,12.397,100.139,0.0000000
10.81,127.017,12.397,100.139,0.0005040
10.86,127.517,12.397,100.139,-0.0004583
10.91,128.018,12.397,100.139,-0.0005501
10.96,128.518,12.397,100.138,0.0005497
11.01,129.018,12.397,100.139,0.0006878
11.06,129.518,12.397,100.139,0.0007336
11.11,130.018,12.397,100.139,0.0004586
11.16,130.518,12.397,100.14,0.0007798
11.21,131.018,12.397,100.14,0.0005503
11.26,131.518,12.397,100.14,0.0006423
11.31,132.018,12.397,100.141,0.0002753
11.36,132.518,12.397,100.141,0.0002295
11.41,133.018,12.397,100.141,-0.0003210
11.46,133.518,12.397,100.141,0.0002292
11.51,134.019,12.397,100.141,0.0003208
11.56,134.519,12.397,100.141,0.0007333
11.61,135.019,12.397,100.142,-0.0002292
11.66,135.519,12.397,100.142,0.0010534
11.71,136.019,12.397,100.142,-0.0001829
11.76,136.519,12.397,100.142,0.0000000
11.81,137.019,12.397,100.142,-0.0001828
11.86,137.519,12.397,100.142,-0.0001369
11.91,138.019,12.397,100.142,-0.0004562
11.96,138.519,12.397,100.142,-0.0009573
12.01,139.019,12.397,100.142,-0.0007745
12.06,139.52,12.397,100.141,-0.0014117
12.11,140.02,12.397,100.141,-0.0013190
12.16,140.52,12.397,100.14,-0.0015455
12.21,141.02,12.397,100.139,-0.0018601
12.26,141.52,12.397,100.138,-0.0027196
12.31,142.02,12.397,100.137,-0.0021286
12.36,142.52,12.396,100.135,-0.0023087
12.41,143.02,12.396,100.134,-0.0023092
12.46,143.52,12.396,100.133,-0.0016319
12.51,144.02,12.396,100.132,-0.0015880
12.56,144.52,12.396,100.131,-0.0018169
12.61,145.021,12.396,100.13,-0.0014110
12.66,145.521,12.396,100.13,-0.0010944
12.71,146.021,12.396,100.129,-0.0015532
12.76,146.521,12.396,100.128,-0.0015568
12.81,147.021,12.395,100.127,-0.0011927
12.86,147.521,12.395,100.126,-0.0018387
12.91,148.021,12.395,100.126,-0.0012875
12.96,148.521,12.395,100.125,-0.0009657
13.01,149.021,12.395,100.125,-0.0005523
13.06,149.521,12.395,100.124,-0.0007825
13.11,150.021,12.395,100.123,-0.0014270
13.16,150.522,12.395,100.123,-0.0005526
13.21,151.022,12.395,100.123,-0.0010588
13.26,151.522,12.395,100.122,-0.0008744
13.31,152.022,12.395,100.122,-0.0009665
13.36,152.522,12.395,100.121,-0.0003219
13.41,153.022,12.395,100.121,-0.0015621
13.46,153.522,12.395,100.12,-0.0005513
13.51,154.022,12.395,100.12,-0.0004593
13.56,154.522,12.395,100.12,-0.0007351
13.61,155.022,12.394,100.119,-0.0006892
13.66,155.522,12.394,100.119,-0.0009651
13.71,156.023,12.394,100.119,-0.0011941
13.76,156.523,12.394,100.118,-0.0007807
13.81,157.023,12.394,100.118,-0.0005972
13.86,157.523,12.394,100.117,-0.0010557
13.91,158.023,12.394,100.117,-0.0011924
13.96,158.523,12.394,100.116,-0.0007793
14.01,159.023,12.394,100.116,-0.0011007
14.06,159.523,12.394,100.116,-0.0006420
14.11,160.023,12.394,100.115,-0.0005962
14.16,160.523,12.394,100.115,-0.0005501
14.21,161.023,12.394,100.114,-0.0010548
14.26,161.523,12.394,100.114,-0.0011921
14.31,162.024,12.394,100.113,-0.0007796
14.36,162.524,12.394,100.113,-0.0006878
14.41,163.024,12.394,100.113,-0.0007333
14.46,163.524,12.394,100.112,-0.0011457
14.51,164.024,12.394,100.112,-0.0002750
14.56,164.524,12.394,100.112,-0.0010083
14.61,165.024,12.393,100.111,-0.0011913
14.66,165.524,12.393,100.111,-0.0003208
14.72,166.024,12.393,100.11,-0.0007795
14.77,166.524,12.393,100.11,-0.0006872
14.82,167.024,12.393,100.11,-0.0010085
14.87,167.525,12.393,100.109,-0.0009162
14.92,168.025,12.393,100.109,-0.0008708
14.97,168.525,12.393,100.108,-0.0005964
15.02,169.025,12.393,100.108,-0.0008255
15.07,169.525,12.393,100.107,-0.0008251
15.12,170.025,12.393,100.107,-0.0008710
15.17,170.525,12.393,100.107,-0.0003668
15.22,171.025,12.393,100.106,-0.0012841
15.27,171.525,12.393,100.106,-0.0009172
15.32,172.025,12.393,100.105,-0.0007794
15.37,172.525,12.393,100.105,-0.0009169
15.42,173.026,12.393,100.104,-0.0014207
15.47,173.526,12.393,100.104,-0.0006870
15.52,174.026,12.392,100.103,-0.0005040
15.57,174.526,12.392,100.103,-0.0006871
15.62,175.026,12.392,100.102,-0.0009162
15.67,175.526,12.392,100.102,-0.0011911
15.72,176.026,12.392,100.102,-0.0011450
15.77,176.526,12.392,100.101,-0.0013739
15.82,177.026,12.392,100.101,-0.0009620
15.87,177.526,12.392,100.1,-0.0004121
15.92,178.026,12.392,100.1,-0.0011907
15.97,178.527,12.392,100.099,-0.0007787
16.02,179.027,12.392,100.099,-0.0014203
16.07,179.527,12.392,100.098,-0.0010083
16.12,180.027,12.392,100.098,-0.0009170
16.17,180.527,12.392,100.097,-0.0015134
16.22,181.027,12.392,100.097,-0.0012380
16.27,181.527,12.392,100.096,-0.0010999
16.32,182.027,12.392,100.096,-0.0010544
16.37,182.527,12.392,100.095,-0.0004584
16.42,183.027,12.391,100.095,-0.0009162
16.47,183.527,12.391,100.094,-0.0005954
16.52,184.028,12.391,100.094,-0.0012366
16.57,184.528,12.391,100.094,-0.0014656
16.62,185.028,12.391,100.093,-0.0010989
16.67,185.528,12.391,100.093,-0.0010992
16.72,186.028,12.391,100.092,-0.0018323
16.77,186.528,12.391,100.091,-0.0008708
16.82,187.028,12.391,100.091,-0.0013294
16.87,187.528,12.391,100.09,-0.0003665
16.92,188.028,12.391,100.09,-0.0008701
16.97,188.528,12.391,100.089,-0.0013283
17.02,189.028,12.391,100.089,-0.0013733
17.07,189.528,12.391,100.088,-0.0010530
17.12,190.029,12.391,100.088,-0.0003662
17.17,190.529,12.39,100.087,-0.0002746
17.22,191.029,12.39,100.087,-0.0010531
17.27,191.529,12.39,100.086,-0.0013745
17.32,192.029,12.39,100.085,-0.0009624
17.37,192.529,12.39,100.085,-0.0011921
17.42,193.029,12.39,100.084,-0.0010544
17.47,193.529,12.39,100.084,-0.0009627
17.52,194.029,12.39,100.083,-0.0011465
17.57,194.529,12.39,100.082,-0.0009176
17.62,195.029,12.39,100.082,-0.0011006
17.67,195.53,12.39,100.081,-0.0005500
17.72,196.03,12.39,100.081,-0.0014205
17.77,196.53,12.39,100.08,-0.0020156
17.82,197.03,12.39,100.079,-0.0010528
17.87,197.53,12.389,100.079,-0.0004121
17.92,198.03,12.389,100.079,-0.0014194
17.97,198.53,12.389,100.078,-0.0009155
18.02,199.03,12.389,100.077,-0.0013736
18.07,199.53,12.389,100.077,-0.0014648
18.12,200.03,12.389,100.076,-0.0008240
18.17,200.53,12.389,100.076,-0.0017861
18.22,201.031,12.389,100.075,-0.0015578
18.27,201.531,12.389,100.074,-0.0022925
18.32,202.031,12.389,100.074,-0.0009168
18.37,202.531,12.389,100.073,-0.0015127
18.42,203.031,12.389,100.073,-0.0012830
18.47,203.531,12.389,100.072,-0.0014201
18.52,204.031,12.389,100.071,-0.0017857
18.57,204.531,12.388,100.071,-0.0016935
18.62,205.031,12.388,100.07,-0.0012355
18.67,205.531,12.388,100.069,-0.0012815
18.72,206.031,12.388,100.069,-0.0013728
18.77,206.532,12.388,100.068,-0.0015110
18.82,207.032,12.388,100.067,-0.0016038
18.87,207.532,12.388,100.067,-0.0013756
18.92,208.032,12.388,100.066,-0.0014223
18.97,208.532,12.388,100.066,-0.0016063
19.02,209.032,12.388,100.065,-0.0013764
19.07,209.532,12.388,100.064,-0.0017420
19.12,210.032,12.388,100.064,-0.0013291
19.17,210.532,12.387,100.063,-0.0010999
19.22,211.032,12.387,100.062,-0.0014669
19.27,211.532,12.387,100.062,-0.0011006
19.32,212.033,12.387,100.061,-0.0009163
19.37,212.533,12.387,100.06,-0.0015110
19.42,213.033,12.387,100.059,-0.0013272
19.47,213.533,12.387,100.059,-0.0009610
19.52,214.033,12.387,100.058,-0.0015110
19.57,214.533,12.387,100.057,-0.0013287
19.62,215.033,12.387,100.057,-0.0010080
19.67,215.533,12.387,100.056,-0.0007329
19.72,216.033,12.387,100.056,-0.0017392
19.77,216.533,12.386,100.055,-0.0016026
19.82,217.033,12.386,100.054,-0.0011444
19.87,217.533,12.386,100.053,-0.0015107
19.92,218.034,12.386,100.053,-0.0013287
19.97,218.534,12.386,100.052,-0.0011456
20.02,219.034,12.386,100.051,-0.0014207
20.07,219.534,12.386,100.05,-0.0018346
20.12,220.034,12.386,100.05,-0.0009629
20.17,220.534,12.386,100.049,-0.0012382
20.22,221.034,12.386,100.048,-0.0015592
20.27,221.534,12.386,100.048,-0.0010085
20.32,222.034,12.386,100.047,-0.0012838
20.37,222.534,12.385,100.046,-0.0015128
20.42,223.034,12.385,100.046,-0.0015119
20.47,223.535,12.385,100.045,-0.0010994
20.52,224.035,12.385,100.044,-0.0014201
20.57,224.535,12.385,100.043,-0.0018782
20.62,225.035,12.385,100.043,-0.0018781
20.67,225.535,12.385,100.042,-0.0012826
20.72,226.035,12.385,100.041,-0.0017852
20.77,226.535,12.385,100.041,-0.0011908
20.82,227.035,12.385,100.04,-0.0013739
20.87,227.535,12.385,100.039,-0.0010535
20.92,228.035,12.384,100.039,-0.0013283
20.97,228.535,12.384,100.038,-0.0011918
21.02,229.036,12.384,100.037,-0.0009621
21.07,229.536,12.384,100.036,-0.0014207
21.12,230.036,12.384,100.036,-0.0010541
21.17,230.536,12.384,100.035,-0.0011459
21.22,231.036,12.384,100.034,-0.0012378
21.27,231.536,12.384,100.034,-0.0015588
21.32,232.036,12.384,100.033,-0.0014665
21.37,232.536,12.384,100.032,-0.0021540
21.42,233.036,12.384,100.031,-0.0013744
21.47,233.536,12.383,100.03,-0.0011914
21.52,234.036,12.383,100.03,-0.0015582
21.57,234.537,12.383,100.029,-0.0016494
21.62,235.037,12.383,100.028,-0.0011454
21.67,235.537,12.383,100.028,-0.0018781
21.72,236.037,12.383,100.027,-0.0017857
21.77,236.537,12.383,100.026,-0.0017406
21.82,237.037,12.383,100.025,-0.0013274
21.87,237.537,12.383,100.024,-0.0019226
21.92,238.037,12.383,100.024,-0.0014654
21.97,238.537,12.383,100.023,-0.0013745
22.02,239.037,12.382,100.022,-0.0015575
22.07,239.537,12.382,100.021,-0.0017867
22.12,240.038,12.382,100.021,-0.0014199
22.17,240.538,12.382,100.02,-0.0009618
22.22,241.038,12.382,100.019,-0.0017860
22.27,241.538,12.382,100.018,-0.0012832
22.32,242.038,12.382,100.017,-0.0012374
22.37,242.538,12.382,100.017,-0.0017869
22.42,243.038,12.382,100.016,-0.0017878
22.47,243.538,12.382,100.015,-0.0007793
22.52,244.038,12.382,100.015,-0.0015586
22.57,244.538,12.381,100.014,-0.0016036
22.62,245.038,12.381,100.013,-0.0015124
22.67,245.538,12.381,100.012,-0.0012838
22.72,246.039,12.381,100.011,-0.0016499
22.77,246.539,12.381,100.011,-0.0012829
22.82,247.039,12.381,100.01,-0.0015124
22.87,247.539,12.381,100.009,-0.0024279
22.92,248.039,12.381,100.008,-0.0017862
22.97,248.539,12.381,100.007,-0.0017865
23.02,249.039,12.381,100.007,-0.0013744
23.07,249.539,12.38,100.006,-0.0017415
23.12,250.039,12.38,100.005,-0.0010539
23.17,250.539,12.38,100.004,-0.0019693
23.22,251.039,12.38,100.003,-0.0016952
23.27,251.54,12.38,100.002,-0.0014665
23.32,252.04,12.38,100.002,-0.0011921
23.37,252.54,12.38,100.001,-0.0022002
23.42,253.04,12.38,100,-0.0015586
23.47,253.54,12.38,99.999,-0.0020173
23.53,254.04,12.379,99.998,-0.0014665
23.58,254.54,12.379,99.997,-0.0013284
23.63,255.04,12.379,99.997,-0.0015568
23.68,255.54,12.379,99.996,-0.0018310
23.73,256.04,12.379,99.995,-0.0015105
23.78,256.54,12.379,99.994,-0.0014652
23.83,257.041,12.379,99.993,-0.0019231
23.88,257.541,12.379,99.993,-0.0020597
23.93,258.041,12.379,99.992,-0.0015102
23.98,258.541,12.379,99.991,-0.0010528
24.03,259.041,12.378,99.99,-0.0019231
24.08,259.541,12.378,99.989,-0.0017408
24.13,260.041,12.378,99.988,-0.0018783
24.18,260.541,12.378,99.987,-0.0015121
24.23,261.041,12.378,99.987,-0.0018325
24.28,261.541,12.378,99.986,-0.0018338
24.33,262.041,12.378,99.985,-0.0015129
24.38,262.542,12.378,99.984,-0.0017415
24.43,263.042,12.378,99.983,-0.0018790
24.48,263.542,12.377,99.982,-0.0016504
24.53,264.042,12.377,99.981,-0.0020161
24.58,264.542,12.377,99.98,-0.0018315
24.63,265.042,12.377,99.98,-0.0004579
24.68,265.542,12.377,99.979,-0.0017393
24.73,266.042,12.377,99.978,-0.0024280
24.78,266.542,12.377,99.977,-0.0019231
24.83,267.042,12.377,99.976,-0.0016951
24.88,267.542,12.377,99.975,-0.0024739
24.93,268.043,12.376,99.974,-0.0026112
24.98,268.543,12.376,99.973,-0.0018783
25.03,269.043,12.376,99.972,-0.0023352
25.08,269.543,12.376,99.971,-0.0017857
25.13,270.043,12.376,99.97,-0.0017412
25.18,270.543,12.376,99.969,-0.0015582
25.23,271.043,12.376,99.968,-0.0025197
25.28,271.543,12.376,99.967,-0.0015110
25.33,272.043,12.375,99.966,-0.0019689
25.38,272.543,12.375,99.965,-0.0023352
25.43,273.043,12.375,99.964,-0.0017852
25.48,273.543,12.375,99.963,-0.0016019
25.53,274.044,12.375,99.962,-0.0034799
25.58,274.544,12.375,99.961,-0.0020604
25.63,275.044,12.375,99.96,-0.0019241
25.68,275.544,12.375,99.959,-0.0028852
25.73,276.044,12.374,99.958,-0.0014220
25.78,276.544,12.374,99.957,-0.0022428
25.83,277.044,12.374,99.956,-0.0022885
25.88,277.544,12.374,99.955,-0.0022436
25.93,278.044,12.374,99.954,-0.0016493
25.98,278.544,12.374,99.953,-0.0024748
26.03,279.044,12.374,99.952,-0.0025192
26.08,279.545,12.374,99.951,-0.0021081
26.13,280.045,12.373,99.95,-0.0019241
26.18,280.545,12.373,99.949,-0.0027035
26.23,281.045,12.373,99.948,-0.0023828
26.28,281.545,12.373,99.947,-0.0013278
26.33,282.045,12.373,99.946,-0.0019671
26.38,282.545,12.373,99.945,-0.0020128
26.43,283.045,12.373,99.944,-0.0017844
26.48,283.545,12.373,99.943,-0.0020140
26.53,284.045,12.372,99.942,-0.0026099
26.58,284.545,12.372,99.941,-0.0021074
26.63,285.046,12.372,99.939,-0.0018332
26.68,285.546,12.372,99.938,-0.0024259
26.73,286.046,12.372,99.937,-0.0024267
26.78,286.546,12.372,99.936,-0.0020147
26.83,287.046,12.372,99.935,-0.0018779
26.88,287.546,12.372,99.934,-0.0023338
26.93,288.046,12.371,99.933,-0.0023339
26.98,288.546,12.371,99.932,-0.0016469
27.03,289.046,12.371,99.931,-0.0023352
27.08,289.546,12.371,99.929,-0.0025641
27.13,290.046,12.371,99.928,-0.0016026
27.18,290.547,12.371,99.927,-0.0022894
27.23,291.047,12.371,99.926,-0.0021070
27.28,291.547,12.37,99.925,-0.0017399
27.33,292.047,12.37,99.924,-0.0024278
27.38,292.547,12.37,99.923,-0.0027956
27.43,293.047,12.37,99.922,-0.0021998
27.48,293.547,12.37,99.92,-0.0024725
27.53,294.047,12.37,99.919,-0.0023797
27.58,294.547,12.37,99.918,-0.0024245
27.63,295.047,12.369,99.917,-0.0026548
27.68,295.547,12.369,99.916,-0.0024725
27.73,296.048,12.369,99.914,-0.0021990
27.78,296.548,12.369,99.913,-0.0022906
27.83,297.048,12.369,99.912,-0.0023832
27.88,297.548,12.369,99.911,-0.0031634
27.93,298.048,12.368,99.909,-0.0027050
27.98,298.548,12.368,99.908,-0.0019710
28.03,299.048,12.368,99.907,-0.0023365
28.08,299.548,12.368,99.906,-0.0027930
28.13,300.048,12.368,99.905,-0.0022427
28.18,300.548,12.368,99.903,-0.0028377
28.23,301.048,12.368,99.902,-0.0021536
28.28,301.548,12.367,99.901,-0.0021978
28.33,302.049,12.367,99.9,-0.0024734
28.38,302.549,12.367,99.898,-0.0028873
28.43,303.049,12.367,99.897,-0.0027029
28.48,303.549,12.367,99.896,-0.0022903
28.53,304.049,12.367,99.895,-0.0028873
28.58,304.549,12.366,99.893,-0.0026123
28.63,305.049,12.366,99.892,-0.0021090
28.68,305.549,12.366,99.891,-0.0024739
28.73,306.049,12.366,99.89,-0.0026113
28.78,306.549,12.366,99.888,-0.0022894
28.83,307.049,12.366,99.887,-0.0029304
28.88,307.55,12.366,99.886,-0.0025632
28.93,308.05,12.365,99.884,-0.0023352
28.98,308.55,12.365,99.883,-0.0020135
29.03,309.05,12.365,99.882,-0.0025197
29.08,309.55,12.365,99.88,-0.0024734
29.13,310.05,12.365,99.879,-0.0024275
29.18,310.55,12.365,99.878,-0.0024267
29.23,311.05,12.364,99.876,-0.0027930
29.28,311.55,12.364,99.875,-0.0025655
29.33,312.05,12.364,99.874,-0.0032051
29.38,312.55,12.364,99.872,-0.0023823
29.43,313.051,12.364,99.871,-0.0025206
29.48,313.551,12.364,99.87,-0.0024290
29.53,314.051,12.363,99.868,-0.0031148
29.58,314.551,12.363,99.867,-0.0026571
29.63,315.051,12.363,99.866,-0.0026109
29.68,315.551,12.363,99.864,-0.0021081
29.73,316.051,12.363,99.863,-0.0028873
29.78,316.551,12.363,99.861,-0.0030230
29.83,317.051,12.362,99.86,-0.0027946
29.88,317.551,12.362,99.859,-0.0032967
29.93,318.051,12.362,99.857,-0.0027905
29.98,318.552,12.362,99.856,-0.0029283
30.03,319.052,12.362,99.854,-0.0029739
30.08,319.552,12.361,99.853,-0.0029277
30.13,320.052,12.361,99.851,-0.0023330
30.18,320.552,12.361,99.85,-0.0022894
30.23,321.052,12.361,99.849,-0.0031565
30.28,321.552,12.361,99.847,-0.0025622
30.33,322.052,12.361,99.846,-0.0032509
30.38,322.552,12.36,99.844,-0.0044446
30.43,323.052,12.36,99.842,-0.0030706
30.48,323.552,12.36,99.841,-0.0029789
30.53,324.053,12.36,99.839,-0.0034844
30.58,324.553,12.36,99.838,-0.0027488
30.63,325.053,12.359,99.836,-0.0029304
30.68,325.553,12.359,99.835,-0.0033414
30.73,326.053,12.359,99.833,-0.0034309
30.78,326.553,12.359,99.832,-0.0027905
30.83,327.053,12.359,99.83,-0.0034329
30.88,327.553,12.358,99.829,-0.0040293
30.93,328.053,12.358,99.827,-0.0034353
30.98,328.553,12.358,99.825,-0.0033883
31.03,329.053,12.358,99.824,-0.0036630
31.08,329.553,12.358,99.822,-0.0028388
31.13,330.054,12.357,99.82,-0.0026557
31.18,330.554,12.357,99.819,-0.0027447
31.23,331.054,12.357,99.817,-0.0030660
31.28,331.554,12.357,99.816,-0.0030667
31.33,332.054,12.357,99.814,-0.0031593
31.38,332.554,12.356,99.812,-0.0029745
31.43,333.054,12.356,99.811,-0.0030695
31.48,333.554,12.356,99.809,-0.0029320
31.53,334.054,12.356,99.807,-0.0037122
31.58,334.554,12.356,99.806,-0.0030678
31.63,335.054,12.355,99.804,-0.0032509
31.68,335.555,12.355,99.802,-0.0035714
31.73,336.055,12.355,99.801,-0.0032509
31.78,336.555,12.355,99.799,-0.0031153
31.83,337.055,12.355,99.798,-0.0032068
31.88,337.555,12.354,99.796,-0.0037546
31.93,338.055,12.354,99.794,-0.0032051
31.98,338.555,12.354,99.792,-0.0034799
32.03,339.055,12.354,99.791,-0.0041209
32.08,339.555,12.354,99.789,-0.0038004
32.13,340.055,12.353,99.787,-0.0040729
32.18,340.555,12.353,99.785,-0.0039341
32.23,341.056,12.353,99.784,-0.0034322
32.28,341.556,12.353,99.782,-0.0029773
32.33,342.056,12.352,99.78,-0.0034341
32.38,342.556,12.352,99.778,-0.0037088
32.43,343.056,12.352,99.776,-0.0031152
32.48,343.556,12.352,99.775,-0.0036650
32.53,344.056,12.352,99.773,-0.0035256
32.58,344.556,12.351,99.771,-0.0037088
32.63,345.056,12.351,99.769,-0.0030220
32.68,345.556,12.351,99.767,-0.0044889
32.73,346.056,12.351,99.765,-0.0038018
32.78,346.557,12.35,99.763,-0.0032967
32.83,347.057,12.35,99.761,-0.0042108
32.88,347.557,12.35,99.759,-0.0037990
32.93,348.057,12.35,99.757,-0.0038941
32.98,348.557,12.349,99.756,-0.0042101
33.03,349.057,12.349,99.754,-0.0039355
33.08,349.557,12.349,99.752,-0.0042048
33.13,350.057,12.349,99.75,-0.0041156
33.18,350.557,12.348,99.748,-0.0041628
33.23,351.057,12.348,99.746,-0.0042590
33.28,351.557,12.348,99.744,-0.0038031
33.33,352.058,12.348,99.742,-0.0043971
33.38,352.558,12.347,99.739,-0.0036205
33.43,353.058,12.347,99.737,-0.0035760
33.48,353.558,12.347,99.736,-0.0036664
33.53,354.058,12.347,99.734,-0.0044896
33.58,354.558,12.346,99.731,-0.0041247
33.63,355.058,12.346,99.73,-0.0038497
33.68,355.558,12.346,99.727,-0.0046271
33.73,356.058,12.346,99.725,-0.0043040
33.78,356.558,12.345,99.723,-0.0042567
33.83,357.058,12.345,99.721,-0.0050805
33.88,357.558,12.345,99.718,-0.0048077
33.93,358.059,12.345,99.716,-0.0039377
33.98,358.559,12.344,99.714,-0.0041667
34.03,359.059,12.344,99.712,-0.0044872
34.08,359.559,12.344,99.709,-0.0049908
34.13,360.059,12.343,99.707,-0.0047161
34.18,360.559,12.343,99.705,-0.0052703
34.23,361.059,12.343,99.702,-0.0050413
34.28,361.559,12.343,99.7,-0.0048121
34.33,362.059,12.342,99.697,-0.0049028
34.38,362.559,12.342,99.695,-0.0054049
34.43,363.059,12.342,99.692,-0.0050394
34.48,363.56,12.341,99.69,-0.0054975
34.53,364.06,12.341,99.687,-0.0058193
34.58,364.56,12.341,99.684,-0.0054528
34.63,365.06,12.34,99.682,-0.0054049
34.68,365.56,12.34,99.679,-0.0061813
34.73,366.06,12.34,99.676,-0.0057651
34.78,366.56,12.339,99.673,-0.0053036
34.83,367.06,12.339,99.671,-0.0061299
34.88,367.56,12.339,99.668,-0.0059557
34.93,368.06,12.338,99.665,-0.0056319
34.98,368.56,12.338,99.662,-0.0055861
35.03,369.061,12.338,99.659,-0.0062237
35.08,369.561,12.337,99.656,-0.0056288
35.13,370.061,12.337,99.653,-0.0059949
35.18,370.561,12.336,99.65,-0.0068261
35.23,371.061,12.336,99.647,-0.0059557
35.28,371.561,12.336,99.644,-0.0067802
35.33,372.061,12.335,99.641,-0.0066392
35.38,372.561,12.335,99.637,-0.0060005
35.43,373.061,12.334,99.634,-0.0059502
35.48,373.561,12.334,99.631,-0.0064103
35.53,374.061,12.334,99.628,-0.0066392
35.58,374.562,12.333,99.625,-0.0067283
35.63,375.062,12.333,99.621,-0.0068185
35.68,375.562,12.332,99.618,-0.0078297
35.73,376.062,12.332,99.614,-0.0073260
35.78,376.562,12.331,99.61,-0.0072776
35.83,377.062,12.331,99.606,-0.0073233
35.88,377.562,12.33,99.602,-0.0078755
35.93,378.062,12.33,99.598,-0.0076852
35.98,378.562,12.329,99.594,-0.0083715
36.03,379.062,12.329,99.59,-0.0075507
36.08,379.562,12.328,99.586,-0.0080128
36.13,380.063,12.328,99.582,-0.0090168
36.18,380.563,12.327,99.577,-0.0088779
36.23,381.063,12.327,99.573,-0.0092898
36.28,381.563,12.326,99.568,-0.0093813
36.33,382.063,12.326,99.563,-0.0098389
36.38,382.563,12.325,99.558,-0.0098846
36.43,383.063,12.324,99.554,-0.0094728
36.48,383.563,12.324,99.549,-0.0102507
36.53,384.063,12.323,99.543,-0.0112118
36.58,384.563,12.322,99.538,-0.0105311
36.63,385.063,12.322,99.533,-0.0119440
36.68,385.563,12.321,99.527,-0.0121270
36.73,386.064,12.32,99.521,-0.0120421
36.78,386.564,12.32,99.515,-0.0124084
36.83,387.064,12.319,99.509,-0.0127173
36.88,387.564,12.318,99.502,-0.0119898
36.93,388.064,12.317,99.496,-0.0128545
36.98,388.564,12.317,99.49,-0.0138076
37.03,389.064,12.316,99.483,-0.0140871
37.08,389.564,12.315,99.476,-0.0141811
37.13,390.064,12.314,99.469,-0.0145471
37.18,390.564,12.313,99.461,-0.0154620
37.23,391.064,12.312,99.454,-0.0152389
37.28,391.565,12.311,99.446,-0.0151931
37.33,392.065,12.31,99.438,-0.0160168
37.38,392.565,12.309,99.43,-0.0166667
37.43,393.065,12.308,99.422,-0.0168498
37.48,393.565,12.307,99.414,-0.0172098
37.53,394.065,12.306,99.405,-0.0177036
37.58,394.565,12.305,99.396,-0.0177428
37.63,395.065,12.304,99.387,-0.0180794
37.68,395.565,12.303,99.378,-0.0189879
37.73,396.065,12.302,99.369,-0.0183898
37.78,396.565,12.3,99.359,-0.0192589
37.83,397.066,12.299,99.35,-0.0199066
37.88,397.566,12.298,99.34,-0.0198078
37.93,398.066,12.297,99.329,-0.0206044
37.98,398.566,12.295,99.319,-0.0213828
38.03,399.066,12.294,99.308,-0.0215999
38.08,399.566,12.293,99.297,-0.0220238
38.13,400.066,12.291,99.286,-0.0225151
38.18,400.566,12.29,99.275,-0.0237637
38.23,401.066,12.288,99.263,-0.0237964
38.28,401.566,12.287,99.251,-0.0243501
38.33,402.066,12.285,99.238,-0.0254121
38.38,402.567,12.284,99.226,-0.0258921
38.43,403.067,12.282,99.213,-0.0260627
38.48,403.567,12.281,99.2,-0.0268315
38.53,404.067,12.279,99.186,-0.0272436
38.58,404.567,12.277,99.172,-0.0279762
38.63,405.067,12.275,99.158,-0.0289272
38.68,405.567,12.274,99.143,-0.0293956
38.73,406.067,12.272,99.128,-0.0301740
38.78,406.567,12.27,99.113,-0.0312729
38.83,407.067,12.268,99.097,-0.0323082
38.88,407.567,12.266,99.08,-0.0330862
38.93,408.068,12.264,99.064,-0.0337727
38.98,408.568,12.262,99.047,-0.0349625
39.03,409.068,12.259,99.029,-0.0361523
39.08,409.568,12.257,99.01,-0.0367015
39.13,410.068,12.255,98.992,-0.0380216
39.18,410.568,12.252,98.972,-0.0399963
39.23,411.068,12.25,98.952,-0.0402251
39.28,411.568,12.247,98.932,-0.0411329
39.33,412.068,12.245,98.911,-0.0429551
39.38,412.568,12.242,98.889,-0.0436951
39.43,413.068,12.239,98.866,-0.0451216
39.48,413.568,12.236,98.843,-0.0470265
39.53,414.069,12.233,98.819,-0.0488931
39.58,414.569,12.23,98.793,-0.0531136
39.63,415.069,12.227,98.766,-0.0570369
39.68,415.569,12.223,98.737,-0.0601980
39.73,416.069,12.22,98.706,-0.0620879
39.78,416.569,12.216,98.675,-0.0641026
39.83,417.069,12.212,98.642,-0.0664012
39.88,417.569,12.207,98.608,-0.0681069
39.93,418.069,12.203,98.574,-0.0698079
39.98,418.569,12.199,98.538,-0.0717813
40.03,419.069,12.194,98.502,-0.0737877
40.08,419.57,12.19,98.465,-0.0749771
40.13,420.07,12.185,98.427,-0.0766875
40.18,420.57,12.18,98.388,-0.0793230
40.23,421.07,12.175,98.348,-0.0803914
40.28,421.57,12.17,98.307,-0.0833028
40.33,422.07,12.165,98.263,-0.0864469
40.38,422.57,12.159,98.219,-0.0907136
40.43,423.07,12.154,98.175,-0.0918454
40.48,423.57,12.148,98.125,-0.1022440
40.53,424.07,12.141,98.074,-0.1082740
40.58,424.57,12.135,98.02,-0.1103480
40.63,425.071,12.127,97.962,-0.1304690
40.68,425.571,12.12,97.899,-0.1238330
40.73,426.071,12.112,97.835,-0.1306040
40.78,426.571,12.103,97.769,-0.1529380
40.83,427.071,12.095,97.698,-0.1497710
40.88,427.571,12.086,97.625,-0.1415300
40.93,428.071,12.077,97.552,-0.1480780
40.98,428.571,12.067,97.474,-0.1621690
41.03,429.071,12.057,97.393,-0.1590120
41.08,429.571,12.047,97.313,-0.1541280
41.13,430.071,12.036,97.227,-0.1716090
41.18,430.572,12.026,97.14,-0.1760750
41.23,431.072,12.015,97.051,-0.1808070
41.28,431.572,12.003,96.959,-0.1785000
41.33,432.072,11.992,96.867,-0.1756410
41.38,432.572,11.98,96.774,-0.1849820
41.43,433.072,11.968,96.675,-0.2008700
41.48,433.572,11.955,96.569,-0.2138530
41.53,434.072,11.941,96.459,-0.2216010
41.58,434.572,11.927,96.347,-0.2294300
41.63,435.072,11.912,96.225,-0.2412430
41.68,435.572,11.896,96.093,-0.2512830
41.73,436.073,11.88,95.96,-0.2660010
41.78,436.573,11.862,95.822,-0.2743730
41.83,437.073,11.845,95.68,-0.2904430
41.88,437.573,11.827,95.535,-0.2947800
41.93,438.073,11.808,95.381,-0.3141370
41.98,438.573,11.788,95.221,-0.3251150
42.03,439.073,11.768,95.059,-0.3235590
42.08,439.573,11.747,94.889,-0.3458260
42.13,440.073,11.724,94.707,-0.3652780
42.18,440.573,11.701,94.517,-0.4016090
42.23,441.073,11.675,94.311,-0.4107370
42.28,441.573,11.651,94.112,-0.4194860
42.33,442.074,11.624,93.893,-0.4370900
42.38,442.574,11.595,93.662,-0.4629120
42.43,443.074,11.567,93.434,-0.4736450
42.48,443.574,11.537,93.191,-0.5017440
42.53,444.074,11.505,92.936,-0.5372790
42.58,444.574,11.472,92.666,-0.5053150
42.63,445.074,11.439,92.403,-0.4973870
42.68,445.574,11.408,92.151,-0.5161940
42.73,446.074,11.375,91.882,-0.5605680
42.78,446.574,11.339,91.597,-0.6096480
42.83,447.074,11.302,91.293,-0.6188190
42.88,447.575,11.26,90.957,-0.6794860
42.93,448.075,11.218,90.62,-0.7414350
42.98,448.575,11.173,90.256,-0.7002750
43.03,449.075,11.129,89.9,-0.7376710
43.08,449.575,11.082,89.52,-0.8016030
43.13,450.075,11.031,89.105,-0.8406790
43.18,450.575,10.978,88.679,-0.9253170
43.23,451.075,10.923,88.233,-0.8944090
43.28,451.575,10.867,87.783,-0.9607870
43.33,452.075,10.807,87.294,-0.9928290
43.38,452.575,10.744,86.786,-1.0745
43.43,453.076,10.678,86.251,-1.12114
43.48,453.576,10.611,85.713,-1.08068
43.53,454.076,10.54,85.138,-1.13377
43.58,454.576,10.465,84.531,-1.29085
43.63,455.076,10.39,83.932,-1.15083
43.68,455.576,10.315,83.32,-1.30559
43.73,456.076,10.232,82.651,-1.4105
43.78,456.576,10.145,81.948,-1.46575
43.83,457.076,10.055,81.223,-1.45266
43.88,457.576,9.959,80.448,-1.58826
43.93,458.076,9.863,79.667,-1.64502
43.98,458.577,9.761,78.844,-1.62846
44.03,459.077,9.652,77.964,-1.82075
44.08,459.577,9.543,77.083,-1.79055
44.13,460.077,9.426,76.141,-1.88445
44.18,460.577,9.306,75.174,-1.97208
44.23,461.077,9.181,74.166,-2.0751
44.28,461.577,9.047,73.081,-2.04062
44.33,462.077,8.914,72.003,-2.20989
44.38,462.577,8.773,70.869,-2.28321
44.43,463.077,8.628,69.692,-2.34771
44.48,463.577,8.478,68.481,-2.35941
44.53,464.078,8.325,67.249,-2.44011
44.58,464.578,8.167,65.967,-2.55238
44.63,465.078,8,64.619,-2.80851
44.68,465.578,7.829,63.238,-2.80594
44.73,466.078,7.654,61.824,-2.82518
44.78,466.578,7.474,60.374,-2.9846
44.83,467.078,7.287,58.863,-2.99478
44.88,467.578,7.095,57.314,-3.12008
44.93,468.078,6.901,55.741,-3.1377
44.98,468.578,6.699,54.114,-3.32935
45.03,469.078,6.493,52.452,-3.34644
45.08,469.578,6.281,50.734,-3.414
45.13,470.079,6.066,49.003,-3.59708
45.18,470.579,5.847,47.227,-3.65078
45.23,471.079,5.624,45.426,-3.53971
45.28,471.579,5.396,43.584,-3.79477
45.33,472.079,5.166,41.729,-3.65377
45.38,472.579,4.934,39.854,-3.78485
45.43,473.079,4.699,37.958,-3.79373
45.48,473.579,4.463,36.053,-3.73188
45.53,474.079,4.225,34.13,-3.71359
45.58,474.579,3.987,32.205,-3.84026
45.63,475.079,3.758,30.357,-3.74137
45.68,475.58,3.522,28.449,-3.80158
45.73,476.08,3.287,26.551,-3.76856
45.78,476.58,3.054,24.667,-3.79278
45.83,477.08,2.825,22.821,-3.66018
45.88,477.58,2.599,20.997,-3.60039
45.93,478.08,2.382,19.237,-3.52716
45.98,478.58,2.168,17.515,-3.27997
46.03,479.08,1.963,15.853,-3.25181
46.08,479.58,1.772,14.315,-3.10012
46.13,480.08,1.583,12.789,-2.92562
46.18,480.58,1.405,11.346,-2.81769
46.23,481.081,1.243,10.037,-2.59985
46.28,481.581,1.085,8.765,-2.38594
46.33,482.081,0.9420000,7.606,-2.1761
46.38,482.581,0.8160000,6.592,-1.9458
46.43,483.081,0.7000000,5.656,-1.75883
46.48,483.581,0.5990000,4.839,-1.5068
46.53,484.081,0.5150000,4.162,-1.27826
46.58,484.581,0.4430000,3.578,-1.06249
46.62,485.081,0.3860000,3.119,-0.8064740
46.67,485.581,0.3400000,2.746,-0.6575360
46.72,486.081,0.3050000,2.462,-0.4723010
46.77,486.582,0.2790000,2.257,-0.3590950
46.82,487.082,0.2610000,2.109,-0.2496190
46.87,487.582,0.2490000,2.01,-0.1605160
46.92,488.082,0.2410000,1.947,-0.0989789
46.97,488.582,0.2360000,1.908,-0.0571742
47.03,489.082,0.2330000,1.885,-0.0460251
47.08,489.582,0.2310000,1.862,-0.0453110
47.13,490.082,0.2280000,1.841,-0.0399351
47.18,490.582,0.2260000,1.822,-0.0340605
47.23,491.082,0.2240000,1.807,-0.0279213
47.28,491.582,0.2220000,1.794,-0.0224624
47.33,492.083,0.2210000,1.784,-0.0177246
47.38,492.583,0.2200000,1.776,-0.0136055
47.43,493.083,0.2190000,1.77,-0.0104707
47.48,493.583,0.2190000,1.765,-0.0088006
47.53,494.083,0.2180000,1.761,-0.0067052
47.58,494.583,0.2180000,1.758,-0.0053416
47.63,495.083,0.2170000,1.756,-0.0041454
47.68,495.583,0.2170000,1.754,-0.0034042
47.73,496.083,0.2170000,1.753,-0.0024571
47.78,496.583,0.2170000,1.751,-0.0025170
47.83,497.083,0.2170000,1.75,-0.0016880
47.88,497.583,0.2170000,1.749,-0.0014219
47.93,498.084,0.2160000,1.749,-0.0011968
47.98,498.584,0.2160000,1.748,-0.0005646
48.03,499.084,0.2160000,1.748,-0.0006952
48.08,499.584,0.2160000,1.748,-0.0005565
48.13,500.084,0.2160000,1.747,-0.0007751
48.18,500.584,0.2160000,1.747,-0.0004282
48.23,501.084,0.2160000,1.747,-0.0003071
48.28,501.584,0.2160000,1.747,-0.0003134
48.33,502.084,0.2160000,1.747,-0.0007157
48.38,502.584,0.2160000,1.746,-0.0002460
48.43,503.084,0.2160000,1.746,-0.0002782
48.48,503.585,0.2160000,1.746,-0.0000360
48.53,504.085,0.2160000,1.746,0.0000302
48.58,504.585,0.2160000,1.746,0.0004114
48.63,505.085,0.2160000,1.746,0.0002210
48.68,505.585,0.2160000,1.746,0.0000775
48.73,506.085,0.2160000,1.746,0.0003788
48.78,506.585,0.2160000,1.746,0.0001398
48.83,507.085,0.2160000,1.746,-0.0003530
48.88,507.585,0.2160000,1.746,0.0002962
48.93,508.085,0.2160000,1.746,0.0001957
48.98,508.585,0.2160000,1.746,-0.0001418
49.03,509.086,0.2160000,1.746,0.0001146
49.08,509.586,0.2160000,1.746,0.0000423
49.13,510.086,0.2160000,1.746,-0.0001426
49.18,510.586,0.2160000,1.746,-0.0003471
49.23,511.086,0.2160000,1.746,-0.0002642
49.28,511.586,0.2160000,1.746,-0.0002327
49.33,512.086,0.2160000,1.746,-0.0001876
49.38,512.586,0.2160000,1.746,0.0001611
49.43,513.086,0.2160000,1.746,-0.0002125
49.48,513.586,0.2160000,1.746,-0.0000588
49.53,514.086,0.2160000,1.746,0.0002225
49.58,514.587,0.2160000,1.746,0.0003463
49.63,515.087,0.2160000,1.746,-0.0000222
49.68,515.587,0.2160000,1.746,0.0001023
49.73,516.087,0.2160000,1.746,0.0000758
49.78,516.587,0.2160000,1.746,0.0002772
49.83,517.087,0.2160000,1.746,0.0003048
49.88,517.587,0.2160000,1.746,-0.0000258
49.93,518.087,0.2160000,1.746,-0.0000372
49.98,518.587,0.2160000,1.746,-0.0001894
50.03,519.087,0.2160000,1.746,-0.0000142
50.08,519.587,0.2160000,1.746,-0.0003835
50.13,520.088,0.2160000,1.746,0.0000344
50.18,520.588,0.2160000,1.746,-0.0000836
50.23,521.088,0.2160000,1.746,-0.0001343
50.28,521.588,0.2160000,1.746,0.0001100
50.33,522.088,0.2160000,1.746,-0.0001378
50.38,522.588,0.2160000,1.746,-0.0006340
50.43,523.088,0.2160000,1.745,-0.0000657
50.48,523.588,0.2160000,1.745,-0.0002822
50.53,524.088,0.2160000,1.745,-0.0002650
50.58,524.588,0.2160000,1.745,-0.0003779
50.63,525.088,0.2160000,1.745,-0.0001294
50.68,525.588,0.2160000,1.745,0.0000086
50.73,526.089,0.2160000,1.745,-0.0001166
50.78,526.589,0.2160000,1.745,-0.0004421
50.83,527.089,0.2160000,1.745,0.0002823
50.88,527.589,0.2160000,1.745,0.0002157
50.93,528.089,0.2160000,1.745,-0.0002422
50.98,528.589,0.2160000,1.745,-0.0002775
51.03,529.089,0.2160000,1.745,0.0001164
51.08,529.589,0.2160000,1.745,-0.0002132
51.13,530.089,0.2160000,1.745,0.0001987
51.18,530.589,0.2160000,1.745,0.0001029
51.23,531.089,0.2160000,1.745,-0.0000078
51.28,531.59,0.2160000,1.745,-0.0008609
51.33,532.09,0.2160000,1.744,-0.0000801
51.38,532.59,0.2160000,1.745,0.0001806
51.43,533.09,0.2160000,1.745,-0.0004870
51.48,533.59,0.2160000,1.744,-0.0001514
51.53,534.09,0.2160000,1.745,0.0002458
51.58,534.59,0.2160000,1.745,-0.0000852
51.63,535.09,0.2160000,1.744,-0.0008974
51.68,535.59,0.2160000,1.744,-0.0003769
51.73,536.09,0.2160000,1.744,-0.0003132
51.78,536.59,0.2160000,1.744,-0.0004827
51.83,537.091,0.2160000,1.744,-0.0003244
51.88,537.591,0.2160000,1.744,0.0001309
51.93,538.091,0.2160000,1.744,-0.0005445
51.98,538.591,0.2160000,1.743,-0.0004223
52.03,539.091,0.2160000,1.743,-0.0000415
52.08,539.591,0.2160000,1.743,-0.0000408
52.13,540.091,0.2160000,1.743,-0.0001657
52.18,540.591,0.2160000,1.743,0.0000093
52.23,541.091,0.2160000,1.743,-0.0001683
52.28,541.591,0.2160000,1.743,-0.0003046
52.33,542.091,0.2160000,1.743,-0.0001164
52.38,542.592,0.2160000,1.743,0.0002043
52.43,543.092,0.2160000,1.743,-0.0003631
52.48,543.592,0.2160000,1.743,0.0000637
52.53,544.092,0.2160000,1.743,-0.0001316
52.58,544.592,0.2160000,1.742,-0.0002924
52.63,545.092,0.2160000,1.742,-0.0000707
52.68,545.592,0.2160000,1.742,-0.0002409
52.73,546.092,0.2160000,1.742,-0.0001415
52.78,546.592,0.2160000,1.742,-0.0002977
52.83,547.092,0.2160000,1.742,-0.0001051
52.88,547.592,0.2160000,1.742,0.0002807
52.93,548.093,0.2160000,1.742,-0.0000679
52.98,548.593,0.2160000,1.742,-0.0003860
53.03,549.093,0.2160000,1.741,-0.0003434
53.08,549.593,0.2160000,1.741,0.0001309
53.13,550.093,0.2160000,1.741,0.0001136
53.18,550.593,0.2160000,1.741,-0.0000636
53.23,551.093,0.2160000,1.741,-0.0005479
53.28,551.593,0.2160000,1.741,-0.0001057
53.33,552.093,0.2160000,1.741,-0.0004323
53.38,552.593,0.2160000,1.741,-0.0005239
53.43,553.093,0.2150000,1.741,-0.0001632
53.48,553.593,0.2150000,1.741,-0.0001816
53.53,554.094,0.2150000,1.74,0.0001050
53.58,554.594,0.2150000,1.74,-0.0003710
53.63,555.094,0.2150000,1.74,-0.0001387
53.68,555.594,0.2150000,1.74,-0.0005693
53.73,556.094,0.2150000,1.74,-0.0003309
53.78,556.594,0.2150000,1.74,-0.0003010
53.83,557.094,0.2150000,1.739,-0.0003588
53.88,557.594,0.2150000,1.739,-0.0008098
53.93,558.094,0.2150000,1.739,-0.0003270
53.98,558.594,0.2150000,1.739,-0.0004600
54.03,559.094,0.2150000,1.739,-0.0003710
54.08,559.595,0.2150000,1.738,-0.0005105
54.13,560.095,0.2150000,1.738,-0.0003790
54.18,560.595,0.2150000,1.738,-0.0005374
54.23,561.095,0.2150000,1.738,-0.0004954
54.28,561.595,0.2150000,1.738,-0.0006814
54.33,562.095,0.2150000,1.737,-0.0003320
54.38,562.595,0.2150000,1.737,-0.0007705
54.43,563.095,0.2150000,1.737,-0.0003495
54.48,563.595,0.2150000,1.737,-0.0004786
54.53,564.095,0.2150000,1.737,-0.0005681
54.58,564.595,0.2150000,1.737,-0.0004781
54.63,565.096,0.2150000,1.736,-0.0006868
54.68,565.596,0.2150000,1.736,-0.0005584
54.73,566.096,0.2150000,1.736,-0.0006369
54.78,566.596,0.2150000,1.735,-0.0010088
54.83,567.096,0.2150000,1.735,-0.0006391
54.88,567.596,0.2150000,1.735,-0.0007222
54.93,568.096,0.2150000,1.735,-0.0004142
54.98,568.596,0.2150000,1.734,-0.0010930
55.03,569.096,0.2150000,1.734,-0.0005332
55.08,569.596,0.2150000,1.734,-0.0003367
55.13,570.096,0.2150000,1.733,-0.0005652
55.18,570.597,0.2150000,1.733,-0.0008501
55.23,571.097,0.2140000,1.733,-0.0009161
55.28,571.597,0.2140000,1.732,-0.0010172
55.33,572.097,0.2140000,1.732,-0.0008304
55.38,572.597,0.2140000,1.731,-0.0007740
55.43,573.097,0.2140000,1.731,-0.0009461
55.48,573.597,0.2140000,1.73,-0.0010485
55.53,574.097,0.2140000,1.73,-0.0005736
55.58,574.597,0.2140000,1.73,-0.0007906
55.63,575.097,0.2140000,1.73,-0.0011212
55.68,575.597,0.2140000,1.729,-0.0008662
55.73,576.098,0.2140000,1.729,-0.0009684
55.78,576.598,0.2140000,1.728,-0.0010973
55.83,577.098,0.2140000,1.728,-0.0009827
55.88,577.598,0.2140000,1.727,-0.0007429
55.93,578.098,0.2140000,1.727,-0.0011349
55.98,578.598,0.2140000,1.727,-0.0008885
56.03,579.098,0.2140000,1.726,-0.0008293
56.08,579.598,0.2140000,1.726,-0.0004404
56.13,580.098,0.2140000,1.725,-0.0008207
56.18,580.598,0.2140000,1.725,-0.0007763
56.23,581.098,0.2140000,1.725,-0.0011384
56.28,581.598,0.2130000,1.724,-0.0006575
56.33,582.099,0.2130000,1.724,-0.0010208
56.38,582.599,0.2130000,1.724,-0.0006271
56.43,583.099,0.2130000,1.723,-0.0009608
56.48,583.599,0.2130000,1.723,-0.0010165
56.53,584.099,0.2130000,1.722,-0.0007068
56.58,584.599,0.2130000,1.722,-0.0010323
56.63,585.099,0.2130000,1.721,-0.0010526
56.68,585.599,0.2130000,1.721,-0.0004376
56.73,586.099,0.2130000,1.721,-0.0011961
56.78,586.599,0.2130000,1.72,-0.0007546
56.83,587.099,0.2130000,1.72,-0.0006577
56.88,587.6,0.2130000,1.72,-0.0009440
56.93,588.1,0.2130000,1.719,-0.0007354
56.98,588.6,0.2130000,1.719,-0.0007160
57.03,589.1,0.2130000,1.719,-0.0009100
57.08,589.6,0.2130000,1.718,-0.0007382
57.11,590,0.2130000,1.718,-0.0007184