File: R/rHDPE_App/app/www/Output/TGA/Condensed_Data/Resin16_0__1.csv
0.5300000,30,12.289,100.022,0.0002408
0.6200000,30.5001,12.29,100.026,0.0052467
0.6900000,31.0002,12.29,100.03,0.0011194
0.7600000,31.5003,12.291,100.033,0.0104571
0.8300000,32.0004,12.291,100.035,-0.0002974
0.8900000,32.5004,12.291,100.037,0.0025405
0.9500000,33.0005,12.292,100.039,0.0066910
1.02,33.5006,12.292,100.041,0.0041296
1.08,34.0007,12.292,100.042,0.0011381
1.13,34.5008,12.292,100.044,-0.0003207
1.19,35.0009,12.292,100.045,0.0050608
1.25,35.501,12.292,100.046,0.0027135
1.31,36.0011,12.293,100.047,0.0001032
1.36,36.5012,12.293,100.048,0.0038427
1.42,37.0013,12.293,100.049,-0.0007121
1.47,37.5013,12.293,100.05,0.0040389
1.53,38.0014,12.293,100.051,-0.0000502
1.58,38.5015,12.293,100.052,0.0031954
1.64,39.0016,12.293,100.052,0.0003480
1.69,39.5017,12.293,100.053,0.0036615
1.74,40.0018,12.293,100.054,0.0021685
1.8,40.5019,12.293,100.055,0.0003439
1.85,41.002,12.294,100.056,0.0023498
1.91,41.5021,12.294,100.056,0.0014649
1.96,42.0021,12.294,100.057,0.0002436
2.01,42.5022,12.294,100.058,0.0028198
2.07,43.0023,12.294,100.059,0.0011169
2.12,43.5024,12.294,100.059,0.0002910
2.17,44.0025,12.294,100.06,0.0028065
2.22,44.5026,12.294,100.061,0.0020285
2.28,45.0027,12.294,100.062,0.0007236
2.33,45.5028,12.294,100.062,0.0019272
2.38,46.0029,12.295,100.063,0.0026922
2.44,46.5029,12.295,100.064,0.0005759
2.49,47.003,12.295,100.065,0.0008147
2.54,47.5031,12.295,100.066,0.0021047
2.59,48.0032,12.295,100.067,0.0024841
2.64,48.5033,12.295,100.067,0.0013836
2.69,49.0034,12.295,100.068,0.0012853
2.75,49.5035,12.295,100.069,0.0019019
2.8,50.0036,12.295,100.07,0.0019938
2.85,50.5037,12.295,100.071,0.0009004
2.9,51.0038,12.295,100.071,0.0009466
2.96,51.5038,12.296,100.072,0.0013244
3.01,52.0039,12.296,100.073,0.0017942
3.06,52.504,12.296,100.074,0.0016038
3.11,53.0041,12.296,100.074,0.0011781
3.16,53.5042,12.296,100.075,0.0012237
3.21,54.0043,12.296,100.076,0.0012229
3.26,54.5044,12.296,100.077,0.0018796
3.31,55.0045,12.296,100.078,0.0021600
3.37,55.5046,12.296,100.078,0.0016421
3.42,56.0046,12.296,100.079,0.0012654
3.47,56.5047,12.297,100.08,0.0014046
3.52,57.0048,12.297,100.08,0.0014496
3.57,57.5049,12.297,100.081,0.0014488
3.62,58.005,12.297,100.082,0.0013538
3.67,58.5051,12.297,100.082,0.0013518
3.72,59.0052,12.297,100.083,0.0013040
3.78,59.5053,12.297,100.084,0.0012558
3.83,60.0054,12.297,100.084,0.0012549
3.88,60.5054,12.297,100.085,0.0013465
3.93,61.0055,12.297,100.086,0.0013457
3.98,61.5056,12.297,100.086,0.0018093
4.03,62.0057,12.297,100.087,0.0014835
4.08,62.5058,12.298,100.088,0.0013438
4.13,63.0059,12.298,100.088,0.0015289
4.18,63.506,12.298,100.089,0.0013432
4.23,64.0061,12.298,100.09,0.0011574
4.28,64.5062,12.298,100.091,0.0013875
4.33,65.0063,12.298,100.091,0.0013869
4.38,65.5063,12.298,100.092,0.0013389
4.43,66.0064,12.298,100.092,0.0011536
4.48,66.5065,12.298,100.093,0.0011991
4.53,67.0066,12.298,100.093,0.0010149
4.58,67.5067,12.298,100.094,0.0008763
4.63,68.0068,12.298,100.095,0.0010606
4.68,68.5069,12.298,100.095,0.0011982
4.74,69.007,12.298,100.096,0.0014740
4.79,69.5071,12.299,100.096,0.0009209
4.84,70.0071,12.299,100.097,0.0009203
4.89,70.5072,12.299,100.097,0.0010582
4.94,71.0073,12.299,100.098,0.0013789
4.99,71.5074,12.299,100.098,0.0010570
5.04,72.0075,12.299,100.099,0.0010570
5.09,72.5076,12.299,100.099,0.0011488
5.14,73.0077,12.299,100.1,0.0011481
5.19,73.5078,12.299,100.1,0.0015164
5.24,74.0079,12.299,100.101,0.0011015
5.29,74.5079,12.299,100.102,0.0011009
5.34,75.008,12.299,100.102,0.0012373
5.39,75.5081,12.299,100.103,0.0007329
5.44,76.0082,12.299,100.103,0.0006418
5.49,76.5083,12.299,100.104,0.0009627
5.54,77.0084,12.3,100.104,0.0012838
5.59,77.5085,12.3,100.105,0.0009631
5.64,78.0086,12.3,100.105,0.0005500
5.69,78.5087,12.3,100.106,0.0005044
5.74,79.0088,12.3,100.106,0.0010543
5.79,79.5088,12.3,100.106,0.0010542
5.84,80.0089,12.3,100.107,0.0010541
5.89,80.509,12.3,100.107,0.0012371
5.94,81.0091,12.3,100.108,0.0008707
5.99,81.5092,12.3,100.108,0.0008248
6.04,82.0093,12.3,100.109,0.0009160
6.09,82.5094,12.3,100.109,0.0006410
6.14,83.0095,12.3,100.109,0.0005493
6.19,83.5096,12.3,100.11,0.0004120
6.24,84.0096,12.3,100.11,0.0008239
6.29,84.5097,12.3,100.111,0.0006866
6.34,85.0098,12.3,100.111,0.0009151
6.39,85.5099,12.3,100.111,0.0009153
6.44,86.01,12.3,100.112,0.0009153
6.49,86.5101,12.3,100.112,0.0010065
6.54,87.0102,12.301,100.112,0.0004116
6.59,87.5103,12.301,100.113,0.0006405
6.64,88.0104,12.301,100.113,0.0005948
6.69,88.5104,12.301,100.114,0.0003204
6.74,89.0105,12.301,100.114,0.0004580
6.79,89.5106,12.301,100.114,0.0005954
6.84,90.0107,12.301,100.115,0.0007787
6.89,90.5108,12.301,100.115,0.0011455
6.94,91.0109,12.301,100.115,0.0007327
6.99,91.511,12.301,100.116,0.0007778
7.04,92.0111,12.301,100.116,0.0004574
7.09,92.5112,12.301,100.116,0.0008234
7.14,93.0113,12.301,100.117,0.0006404
7.19,93.5113,12.301,100.117,0.0003660
7.24,94.0114,12.301,100.117,0.0003203
7.29,94.5115,12.301,100.118,0.0004575
7.34,95.0116,12.301,100.118,0.0007780
7.39,95.5117,12.301,100.118,0.0002288
7.44,96.0118,12.301,100.118,0.0003661
7.49,96.5119,12.301,100.119,0.0008694
7.54,97.012,12.301,100.119,0.0008232
7.59,97.5121,12.301,100.119,0.0002288
7.64,98.0121,12.301,100.119,0.0005034
7.69,98.5122,12.301,100.12,0.0001373
7.74,99.0123,12.301,100.12,0.0003659
7.79,99.5124,12.301,100.12,0.0004571
7.84,100.013,12.302,100.12,0.0003658
7.89,100.513,12.302,100.12,0.0005946
7.94,101.013,12.302,100.121,0.0002747
7.99,101.513,12.302,100.121,0.0007325
8.04,102.013,12.302,100.121,0.0005949
8.09,102.513,12.302,100.121,0.0000915
8.14,103.013,12.302,100.121,-0.0000915
8.19,103.513,12.302,100.122,-0.0000458
8.24,104.013,12.302,100.122,0.0003664
8.29,104.513,12.302,100.122,0.0001375
8.34,105.013,12.302,100.122,0.0005039
8.39,105.513,12.302,100.122,0.0004121
8.44,106.014,12.302,100.122,0.0009156
8.49,106.514,12.302,100.123,0.0008238
8.54,107.014,12.302,100.123,0.0004118
8.59,107.514,12.302,100.123,0.0004115
8.64,108.014,12.302,100.123,-0.0001372
8.69,108.514,12.302,100.123,0.0001830
8.74,109.014,12.302,100.123,-0.0001373
8.79,109.514,12.302,100.123,0.0001832
8.84,110.014,12.302,100.124,0.0003205
8.89,110.514,12.302,100.124,0.0002289
8.94,111.014,12.302,100.124,0.0002290
8.99,111.515,12.302,100.124,0.0002291
9.04,112.015,12.302,100.124,-0.0000458
9.09,112.515,12.302,100.124,0.0002289
9.14,113.015,12.302,100.124,0.0000000
9.19,113.515,12.302,100.124,-0.0001373
9.24,114.015,12.302,100.124,-0.0002289
9.29,114.515,12.302,100.124,-0.0000000
9.34,115.015,12.302,100.124,0.0002289
9.39,115.515,12.302,100.124,0.0000916
9.44,116.015,12.302,100.124,0.0003664
9.49,116.515,12.302,100.125,0.0000916
9.54,117.016,12.302,100.125,-0.0000458
9.59,117.516,12.302,100.125,0.0000000
9.64,118.016,12.302,100.125,0.0004582
9.69,118.516,12.302,100.125,0.0000917
9.74,119.016,12.302,100.125,0.0001833
9.79,119.516,12.302,100.125,0.0004122
9.84,120.016,12.302,100.125,0.0001374
9.89,120.516,12.302,100.125,0.0002290
9.94,121.016,12.302,100.125,0.0000916
9.99,121.516,12.302,100.126,0.0004122
10.04,122.016,12.302,100.126,0.0005042
10.09,122.517,12.302,100.126,0.0000459
10.14,123.017,12.302,100.126,0.0005505
10.19,123.517,12.302,100.126,0.0004586
10.24,124.017,12.302,100.126,0.0002293
10.29,124.517,12.302,100.126,0.0000917
10.34,125.017,12.302,100.127,0.0003211
10.39,125.517,12.302,100.127,0.0003209
10.44,126.017,12.302,100.127,0.0004127
10.49,126.517,12.302,100.127,0.0000916
10.54,127.017,12.302,100.127,0.0005957
10.59,127.517,12.302,100.128,0.0004580
10.64,128.018,12.302,100.128,0.0006417
10.69,128.518,12.302,100.128,0.0007337
10.74,129.018,12.302,100.128,0.0005046
10.79,129.518,12.303,100.128,0.0003669
10.84,130.018,12.303,100.129,0.0005963
10.89,130.518,12.303,100.129,0.0002294
10.94,131.018,12.303,100.129,0.0001834
10.99,131.518,12.303,100.129,0.0001834
11.04,132.018,12.303,100.129,0.0001834
11.09,132.518,12.303,100.129,0.0001375
11.14,133.018,12.303,100.13,-0.0005954
11.19,133.518,12.303,100.129,-0.0001374
11.24,134.019,12.303,100.129,-0.0001373
11.29,134.519,12.303,100.129,-0.0002288
11.34,135.019,12.303,100.129,0.0000000
11.39,135.519,12.303,100.129,-0.0001374
11.44,136.019,12.303,100.129,-0.0003205
11.49,136.519,12.303,100.129,-0.0006862
11.54,137.019,12.303,100.129,-0.0007764
11.59,137.519,12.302,100.128,-0.0003193
11.64,138.019,12.302,100.128,-0.0007297
11.69,138.519,12.302,100.127,-0.0009587
11.74,139.019,12.302,100.126,-0.0015511
11.79,139.52,12.302,100.126,-0.0017309
11.84,140.02,12.302,100.125,-0.0019117
11.89,140.52,12.302,100.124,-0.0024150
11.94,141.02,12.302,100.123,-0.0023239
11.99,141.52,12.302,100.122,-0.0021410
12.04,142.02,12.302,100.12,-0.0019143
12.09,142.52,12.301,100.119,-0.0020520
12.14,143.02,12.301,100.118,-0.0026460
12.19,143.52,12.301,100.117,-0.0018718
12.24,144.02,12.301,100.116,-0.0014621
12.29,144.52,12.301,100.116,-0.0016004
12.34,145.021,12.301,100.115,-0.0017841
12.39,145.521,12.301,100.114,-0.0014190
12.44,146.021,12.301,100.113,-0.0012826
12.49,146.521,12.301,100.113,-0.0011454
12.54,147.021,12.3,100.112,-0.0009620
12.59,147.521,12.3,100.111,-0.0012830
12.64,148.021,12.3,100.111,-0.0010544
12.69,148.521,12.3,100.11,-0.0012385
12.74,149.021,12.3,100.11,-0.0007798
12.79,149.521,12.3,100.11,-0.0012838
12.84,150.021,12.3,100.109,-0.0011004
12.89,150.522,12.3,100.109,-0.0012851
12.94,151.022,12.3,100.108,-0.0007799
12.99,151.522,12.3,100.108,-0.0007339
13.04,152.022,12.3,100.108,-0.0010098
13.09,152.522,12.3,100.107,-0.0005967
13.14,153.022,12.3,100.107,-0.0008274
13.19,153.522,12.3,100.107,-0.0004596
13.24,154.022,12.3,100.106,-0.0008269
13.29,154.522,12.3,100.106,-0.0005511
13.34,155.022,12.3,100.106,-0.0008264
13.39,155.522,12.3,100.105,-0.0010555
13.44,156.023,12.3,100.105,-0.0006422
13.49,156.523,12.3,100.105,-0.0003209
13.54,157.023,12.3,100.104,-0.0007789
13.59,157.523,12.3,100.104,-0.0003670
13.64,158.023,12.299,100.104,-0.0006884
13.69,158.523,12.299,100.104,-0.0004589
13.74,159.023,12.299,100.103,-0.0004589
13.79,159.523,12.299,100.103,-0.0007801
13.84,160.023,12.299,100.103,-0.0002753
13.89,160.523,12.299,100.102,-0.0009172
13.94,161.023,12.299,100.102,-0.0004581
13.99,161.523,12.299,100.102,-0.0006873
14.04,162.024,12.299,100.101,-0.0003662
14.09,162.524,12.299,100.101,-0.0006416
14.14,163.024,12.299,100.101,-0.0005961
14.19,163.524,12.299,100.1,-0.0005044
14.24,164.024,12.299,100.1,-0.0007342
14.29,164.524,12.299,100.1,-0.0005963
14.34,165.024,12.299,100.099,-0.0006878
14.39,165.524,12.299,100.099,-0.0010543
14.44,166.024,12.299,100.099,-0.0007331
14.49,166.524,12.299,100.098,-0.0010541
14.54,167.024,12.299,100.098,-0.0005958
14.59,167.525,12.299,100.097,-0.0006868
14.64,168.025,12.299,100.097,-0.0007325
14.69,168.525,12.299,100.097,-0.0005951
14.74,169.025,12.299,100.096,-0.0011905
14.79,169.525,12.299,100.096,-0.0008704
14.84,170.025,12.298,100.096,-0.0010078
14.89,170.525,12.298,100.095,-0.0004125
14.94,171.025,12.298,100.095,-0.0007331
14.99,171.525,12.298,100.095,-0.0006895
15.04,172.025,12.298,100.094,-0.0007370
15.09,172.525,12.298,100.094,-0.0011502
15.14,173.026,12.298,100.093,-0.0007807
15.19,173.526,12.298,100.093,-0.0007795
15.24,174.026,12.298,100.093,-0.0009612
15.29,174.526,12.298,100.092,-0.0008684
15.34,175.026,12.298,100.092,-0.0004567
15.39,175.526,12.298,100.092,-0.0007765
15.44,176.026,12.298,100.091,-0.0005481
15.49,176.526,12.298,100.091,-0.0005486
15.54,177.026,12.298,100.091,-0.0008235
15.59,177.526,12.298,100.09,-0.0006412
15.64,178.026,12.298,100.09,-0.0006418
15.69,178.527,12.298,100.089,-0.0008259
15.74,179.027,12.298,100.089,-0.0004587
15.79,179.527,12.298,100.088,-0.0011921
15.84,180.027,12.298,100.088,-0.0002750
15.89,180.527,12.298,100.088,-0.0004122
15.94,181.027,12.297,100.087,-0.0007786
15.99,181.527,12.297,100.087,-0.0005491
16.04,182.027,12.297,100.087,-0.0006403
16.09,182.527,12.297,100.086,-0.0009610
16.14,183.027,12.297,100.086,-0.0005958
16.19,183.527,12.297,100.086,-0.0006873
16.24,184.028,12.297,100.085,-0.0009161
16.29,184.528,12.297,100.085,-0.0006870
16.34,185.028,12.297,100.084,-0.0008698
16.39,185.528,12.297,100.084,-0.0003204
16.44,186.028,12.297,100.083,-0.0004577
16.49,186.528,12.297,100.083,-0.0011907
16.54,187.028,12.297,100.083,-0.0005496
16.59,187.528,12.297,100.082,-0.0009166
16.64,188.028,12.297,100.082,-0.0010099
16.7,188.528,12.297,100.081,-0.0010104
16.75,189.028,12.297,100.081,-0.0005055
16.8,189.528,12.297,100.08,-0.0006888
16.85,190.029,12.297,100.08,-0.0005502
16.9,190.529,12.296,100.079,-0.0011451
16.95,191.029,12.296,100.079,-0.0009155
17,191.529,12.296,100.079,-0.0008692
17.05,192.029,12.296,100.078,-0.0011883
17.09,192.529,12.296,100.078,-0.0005027
17.14,193.029,12.296,100.078,-0.0013261
17.19,193.529,12.296,100.077,-0.0015561
17.24,194.029,12.296,100.077,-0.0010982
17.29,194.529,12.296,100.076,-0.0009607
17.34,195.029,12.296,100.076,-0.0010526
17.39,195.53,12.296,100.075,-0.0006866
17.44,196.03,12.296,100.075,-0.0011900
17.49,196.53,12.296,100.074,-0.0006416
17.54,197.03,12.296,100.074,-0.0008261
17.59,197.53,12.296,100.074,-0.0009180
17.64,198.03,12.296,100.073,-0.0006425
17.7,198.53,12.296,100.073,-0.0009633
17.75,199.03,12.296,100.072,-0.0007801
17.8,199.53,12.296,100.072,-0.0009631
17.85,200.03,12.296,100.071,-0.0005503
17.9,200.53,12.295,100.071,-0.0011006
17.95,201.031,12.295,100.071,-0.0008716
18,201.531,12.295,100.07,-0.0005042
18.05,202.031,12.295,100.07,-0.0006859
18.1,202.531,12.295,100.069,-0.0010510
18.15,203.031,12.295,100.069,-0.0009143
18.2,203.531,12.295,100.068,-0.0007306
18.25,204.031,12.295,100.068,-0.0009141
18.3,204.531,12.295,100.067,-0.0012357
18.35,205.031,12.295,100.067,-0.0010983
18.4,205.531,12.295,100.066,-0.0011452
18.45,206.031,12.295,100.066,-0.0009633
18.5,206.532,12.295,100.065,-0.0007806
18.55,207.032,12.295,100.065,-0.0011482
18.6,207.532,12.295,100.064,-0.0012389
18.65,208.032,12.295,100.064,-0.0010087
18.7,208.532,12.295,100.064,-0.0010087
18.75,209.032,12.294,100.063,-0.0010087
18.8,209.532,12.294,100.063,-0.0012836
18.85,210.032,12.294,100.062,-0.0012829
18.9,210.532,12.294,100.062,-0.0009617
18.95,211.032,12.294,100.061,-0.0011447
19,211.532,12.294,100.06,-0.0012363
19.05,212.033,12.294,100.06,-0.0012363
19.1,212.533,12.294,100.059,-0.0008706
19.15,213.033,12.294,100.059,-0.0009158
19.2,213.533,12.294,100.058,-0.0006864
19.25,214.033,12.294,100.058,-0.0006866
19.3,214.533,12.294,100.058,-0.0006407
19.35,215.033,12.294,100.057,-0.0009619
19.4,215.533,12.294,100.056,-0.0010079
19.45,216.033,12.294,100.056,-0.0011912
19.5,216.533,12.294,100.055,-0.0011454
19.55,217.033,12.293,100.055,-0.0007798
19.6,217.533,12.293,100.054,-0.0016044
19.65,218.034,12.293,100.054,-0.0010544
19.7,218.534,12.293,100.053,-0.0010554
19.75,219.034,12.293,100.053,-0.0013762
19.8,219.534,12.293,100.052,-0.0008705
19.85,220.034,12.293,100.052,-0.0012832
19.9,220.534,12.293,100.051,-0.0013296
19.95,221.034,12.293,100.051,-0.0007334
20,221.534,12.293,100.05,-0.0010538
20.05,222.034,12.293,100.05,-0.0010072
20.1,222.534,12.293,100.049,-0.0014643
20.15,223.034,12.293,100.048,-0.0010067
20.2,223.535,12.293,100.048,-0.0010982
20.25,224.035,12.293,100.047,-0.0009155
20.3,224.535,12.292,100.047,-0.0009158
20.35,225.035,12.292,100.046,-0.0012826
20.4,225.535,12.292,100.046,-0.0011454
20.45,226.035,12.292,100.045,-0.0012829
20.5,226.535,12.292,100.044,-0.0010992
20.55,227.035,12.292,100.044,-0.0011450
20.6,227.535,12.292,100.043,-0.0012383
20.65,228.035,12.292,100.043,-0.0014223
20.7,228.535,12.292,100.042,-0.0011470
20.75,229.036,12.292,100.042,-0.0013289
20.8,229.536,12.292,100.041,-0.0010987
20.85,230.036,12.292,100.041,-0.0008231
20.9,230.536,12.292,100.04,-0.0014639
20.95,231.036,12.292,100.039,-0.0010066
21,231.536,12.291,100.039,-0.0013283
21.05,232.036,12.291,100.038,-0.0011465
21.1,232.536,12.291,100.038,-0.0008714
21.15,233.036,12.291,100.037,-0.0010085
21.2,233.536,12.291,100.036,-0.0012838
21.25,234.036,12.291,100.036,-0.0011462
21.3,234.537,12.291,100.035,-0.0012840
21.35,235.037,12.291,100.034,-0.0013764
21.4,235.537,12.291,100.034,-0.0011471
21.45,236.037,12.291,100.033,-0.0011006
21.5,236.537,12.291,100.032,-0.0009166
21.55,237.037,12.291,100.032,-0.0015117
21.6,237.537,12.291,100.031,-0.0013282
21.65,238.037,12.29,100.03,-0.0012365
21.7,238.537,12.29,100.03,-0.0011457
21.75,239.037,12.29,100.029,-0.0016962
21.8,239.537,12.29,100.028,-0.0015586
21.85,240.038,12.29,100.028,-0.0012368
21.9,240.538,12.29,100.027,-0.0014202
21.95,241.038,12.29,100.026,-0.0014185
22,241.538,12.29,100.026,-0.0017355
22.05,242.038,12.29,100.025,-0.0009593
22.1,242.538,12.29,100.024,-0.0015064
22.15,243.038,12.29,100.024,-0.0015538
22.2,243.538,12.29,100.023,-0.0014631
22.25,244.038,12.289,100.022,-0.0011439
22.3,244.538,12.289,100.022,-0.0013749
22.35,245.038,12.289,100.021,-0.0014683
22.4,245.538,12.289,100.02,-0.0016076
22.45,246.039,12.289,100.02,-0.0016538
22.5,246.539,12.289,100.019,-0.0011473
22.55,247.039,12.289,100.018,-0.0012374
22.6,247.539,12.289,100.017,-0.0014194
22.65,248.039,12.289,100.017,-0.0013741
22.7,248.539,12.289,100.016,-0.0020145
22.75,249.039,12.289,100.015,-0.0017854
22.8,249.539,12.288,100.014,-0.0018318
22.85,250.039,12.288,100.014,-0.0016494
22.9,250.539,12.288,100.013,-0.0012836
22.95,251.039,12.288,100.012,-0.0015138
23,251.54,12.288,100.011,-0.0015135
23.05,252.04,12.288,100.011,-0.0013759
23.1,252.54,12.288,100.01,-0.0017423
23.15,253.04,12.288,100.009,-0.0015582
23.2,253.54,12.288,100.008,-0.0012372
23.25,254.04,12.288,100.008,-0.0013283
23.3,254.54,12.288,100.007,-0.0013276
23.35,255.04,12.287,100.006,-0.0016494
23.4,255.54,12.287,100.005,-0.0017418
23.45,256.04,12.287,100.004,-0.0014671
23.5,256.54,12.287,100.003,-0.0016040
23.55,257.041,12.287,100.003,-0.0016040
23.6,257.541,12.287,100.002,-0.0018787
23.65,258.041,12.287,100.001,-0.0017409
23.7,258.541,12.287,100,-0.0018325
23.75,259.041,12.287,100,-0.0016026
23.8,259.541,12.287,99.999,-0.0020158
23.85,260.041,12.286,99.998,-0.0019699
23.9,260.541,12.286,99.997,-0.0014652
23.95,261.041,12.286,99.996,-0.0016017
24,261.541,12.286,99.995,-0.0016920
24.05,262.041,12.286,99.994,-0.0013719
24.1,262.542,12.286,99.994,-0.0014181
24.15,263.042,12.286,99.993,-0.0015110
24.2,263.542,12.286,99.992,-0.0018784
24.25,264.042,12.286,99.991,-0.0014212
24.3,264.542,12.285,99.99,-0.0019256
24.35,265.042,12.285,99.989,-0.0016055
24.4,265.542,12.285,99.988,-0.0020642
24.45,266.042,12.285,99.987,-0.0017422
24.5,266.542,12.285,99.986,-0.0022456
24.55,267.042,12.285,99.985,-0.0015574
24.6,267.542,12.285,99.984,-0.0019231
24.65,268.043,12.285,99.983,-0.0016484
24.7,268.543,12.285,99.982,-0.0021062
24.75,269.043,12.284,99.981,-0.0020147
24.8,269.543,12.284,99.98,-0.0016477
24.85,270.043,12.284,99.979,-0.0020597
24.9,270.543,12.284,99.978,-0.0016910
24.95,271.043,12.284,99.978,-0.0017798
25,271.543,12.284,99.977,-0.0023318
25.05,272.043,12.284,99.976,-0.0018807
25.1,272.543,12.284,99.974,-0.0019750
25.15,273.043,12.283,99.973,-0.0016034
25.2,273.543,12.283,99.972,-0.0025160
25.25,274.044,12.283,99.971,-0.0025632
25.3,274.544,12.283,99.97,-0.0019714
25.35,275.044,12.283,99.969,-0.0023853
25.4,275.544,12.283,99.968,-0.0023840
25.45,276.044,12.283,99.967,-0.0019707
25.5,276.544,12.283,99.966,-0.0021520
25.55,277.044,12.282,99.965,-0.0019678
25.6,277.544,12.282,99.964,-0.0022428
25.65,278.044,12.282,99.963,-0.0022903
25.7,278.544,12.282,99.962,-0.0023364
25.75,279.044,12.282,99.96,-0.0020661
25.8,279.545,12.282,99.959,-0.0022006
25.85,280.045,12.282,99.958,-0.0023330
25.9,280.545,12.281,99.957,-0.0025632
25.95,281.045,12.281,99.956,-0.0022894
26,281.545,12.281,99.955,-0.0024254
26.05,282.045,12.281,99.953,-0.0024725
26.1,282.545,12.281,99.952,-0.0022911
26.15,283.045,12.281,99.951,-0.0018332
26.2,283.545,12.281,99.95,-0.0023382
26.25,284.045,12.28,99.949,-0.0018794
26.3,284.545,12.28,99.948,-0.0023365
26.35,285.046,12.28,99.947,-0.0023792
26.4,285.546,12.28,99.945,-0.0023343
26.45,286.046,12.28,99.944,-0.0027015
26.5,286.546,12.28,99.943,-0.0027029
26.55,287.046,12.28,99.942,-0.0026576
26.6,287.546,12.279,99.941,-0.0028440
26.65,288.046,12.279,99.939,-0.0025253
26.7,288.546,12.279,99.938,-0.0022489
26.75,289.046,12.279,99.937,-0.0022944
26.8,289.546,12.279,99.936,-0.0019214
26.85,290.046,12.279,99.934,-0.0021910
26.9,290.547,12.279,99.933,-0.0024223
26.95,291.047,12.278,99.932,-0.0027457
27,291.547,12.278,99.931,-0.0024267
27.05,292.047,12.278,99.929,-0.0022907
27.1,292.547,12.278,99.928,-0.0027915
27.15,293.047,12.278,99.927,-0.0027930
27.2,293.547,12.278,99.925,-0.0028414
27.25,294.047,12.277,99.924,-0.0029384
27.3,294.547,12.277,99.923,-0.0024312
27.35,295.047,12.277,99.921,-0.0026109
27.4,295.547,12.277,99.92,-0.0029762
27.45,296.048,12.277,99.919,-0.0026532
27.5,296.548,12.277,99.917,-0.0030241
27.56,297.048,12.276,99.916,-0.0027508
27.61,297.548,12.276,99.915,-0.0029331
27.66,298.048,12.276,99.913,-0.0026999
27.71,298.548,12.276,99.912,-0.0028363
27.76,299.048,12.276,99.91,-0.0028815
27.81,299.548,12.276,99.909,-0.0022403
27.85,300.048,12.275,99.908,-0.0027437
27.9,300.548,12.275,99.906,-0.0028408
27.96,301.048,12.275,99.905,-0.0026157
28.01,301.548,12.275,99.904,-0.0030751
28.06,302.049,12.275,99.902,-0.0027064
28.11,302.549,12.275,99.901,-0.0027508
28.16,303.049,12.274,99.899,-0.0027951
28.21,303.549,12.274,99.898,-0.0031576
28.26,304.049,12.274,99.896,-0.0029282
28.31,304.549,12.274,99.895,-0.0031118
28.36,305.049,12.274,99.894,-0.0028362
28.41,305.549,12.273,99.892,-0.0030638
28.46,306.049,12.273,99.891,-0.0030622
28.51,306.549,12.273,99.889,-0.0031101
28.56,307.049,12.273,99.888,-0.0031553
28.61,307.55,12.273,99.886,-0.0027432
28.66,308.05,12.273,99.885,-0.0031096
28.71,308.55,12.272,99.883,-0.0026085
28.76,309.05,12.272,99.882,-0.0030694
28.81,309.55,12.272,99.88,-0.0029325
28.86,310.05,12.272,99.879,-0.0032092
28.91,310.55,12.272,99.877,-0.0032985
28.96,311.05,12.271,99.876,-0.0029773
29.01,311.55,12.271,99.874,-0.0032967
29.06,312.05,12.271,99.873,-0.0030197
29.11,312.55,12.271,99.871,-0.0029260
29.16,313.051,12.271,99.87,-0.0030181
29.21,313.551,12.271,99.868,-0.0031980
29.26,314.051,12.27,99.867,-0.0028803
29.31,314.551,12.27,99.865,-0.0032034
29.36,315.051,12.27,99.863,-0.0027488
29.41,315.551,12.27,99.862,-0.0031136
29.46,316.051,12.27,99.86,-0.0033883
29.51,316.551,12.269,99.859,-0.0034799
29.56,317.051,12.269,99.857,-0.0032539
29.61,317.551,12.269,99.855,-0.0032081
29.66,318.051,12.269,99.854,-0.0028889
29.71,318.552,12.269,99.852,-0.0030723
29.76,319.052,12.268,99.85,-0.0033486
29.81,319.552,12.268,99.849,-0.0033486
29.86,320.052,12.268,99.847,-0.0037136
29.91,320.552,12.268,99.845,-0.0031622
29.96,321.052,12.268,99.844,-0.0036630
30.01,321.552,12.267,99.842,-0.0033864
30.06,322.052,12.267,99.84,-0.0030666
30.11,322.552,12.267,99.839,-0.0033413
30.16,323.052,12.267,99.837,-0.0032509
30.21,323.552,12.266,99.835,-0.0032063
30.26,324.053,12.266,99.834,-0.0034799
30.31,324.553,12.266,99.832,-0.0032979
30.36,325.053,12.266,99.83,-0.0033883
30.41,325.553,12.266,99.829,-0.0036650
30.46,326.053,12.265,99.827,-0.0034799
30.51,326.553,12.265,99.825,-0.0030679
30.56,327.053,12.265,99.824,-0.0033425
30.61,327.553,12.265,99.822,-0.0030660
30.66,328.053,12.265,99.82,-0.0037567
30.71,328.553,12.264,99.818,-0.0036677
30.76,329.053,12.264,99.817,-0.0037143
30.81,329.553,12.264,99.815,-0.0037135
30.86,330.054,12.264,99.813,-0.0036139
30.91,330.554,12.264,99.811,-0.0036630
30.96,331.054,12.263,99.81,-0.0032086
31.01,331.554,12.263,99.808,-0.0031623
31.06,332.054,12.263,99.806,-0.0032039
31.11,332.554,12.263,99.804,-0.0038025
31.16,333.054,12.262,99.802,-0.0032967
31.21,333.554,12.262,99.801,-0.0038004
31.26,334.054,12.262,99.799,-0.0038025
31.31,334.554,12.262,99.797,-0.0039872
31.36,335.054,12.262,99.795,-0.0036677
31.41,335.555,12.261,99.793,-0.0034360
31.46,336.055,12.261,99.792,-0.0031605
31.51,336.555,12.261,99.79,-0.0035256
31.56,337.055,12.261,99.788,-0.0035720
31.61,337.555,12.26,99.786,-0.0038462
31.66,338.055,12.26,99.784,-0.0037108
31.71,338.555,12.26,99.782,-0.0036205
31.76,339.055,12.26,99.781,-0.0036198
31.81,339.555,12.26,99.779,-0.0037074
31.86,340.055,12.259,99.777,-0.0038897
31.91,340.555,12.259,99.775,-0.0040751
31.96,341.056,12.259,99.774,-0.0035675
32.01,341.556,12.259,99.772,-0.0036073
32.06,342.056,12.258,99.77,-0.0039312
32.11,342.556,12.258,99.768,-0.0035682
32.16,343.056,12.258,99.766,-0.0038462
32.21,343.556,12.258,99.764,-0.0037115
32.26,344.056,12.257,99.762,-0.0037143
32.31,344.556,12.257,99.76,-0.0040773
32.36,345.056,12.257,99.758,-0.0036172
32.41,345.556,12.257,99.756,-0.0038004
32.46,346.056,12.257,99.754,-0.0039872
32.51,346.557,12.256,99.752,-0.0040810
32.56,347.057,12.256,99.75,-0.0039930
32.61,347.557,12.256,99.748,-0.0040848
32.66,348.057,12.256,99.747,-0.0039849
32.71,348.557,12.255,99.745,-0.0041552
32.76,349.057,12.255,99.743,-0.0039661
32.81,349.557,12.255,99.741,-0.0041439
32.86,350.057,12.255,99.739,-0.0041491
32.91,350.557,12.254,99.736,-0.0043096
32.96,351.057,12.254,99.734,-0.0042771
33.01,351.557,12.254,99.732,-0.0041436
33.06,352.058,12.254,99.73,-0.0038588
33.11,352.558,12.253,99.728,-0.0037559
33.16,353.058,12.253,99.726,-0.0040774
33.21,353.558,12.253,99.723,-0.0045704
33.26,354.058,12.252,99.721,-0.0047989
33.31,354.558,12.252,99.719,-0.0046220
33.36,355.058,12.252,99.717,-0.0048147
33.41,355.558,12.252,99.714,-0.0046220
33.46,356.058,12.251,99.712,-0.0047989
33.51,356.558,12.251,99.71,-0.0048059
33.56,357.058,12.251,99.708,-0.0047248
33.61,357.558,12.251,99.705,-0.0047706
33.66,358.059,12.25,99.703,-0.0046304
33.71,358.559,12.25,99.701,-0.0044905
33.76,359.059,12.25,99.698,-0.0046678
33.81,359.559,12.249,99.696,-0.0045704
33.86,360.059,12.249,99.693,-0.0046161
33.91,360.559,12.249,99.691,-0.0050302
33.96,361.059,12.248,99.688,-0.0050796
34.01,361.559,12.248,99.686,-0.0048948
34.06,362.059,12.248,99.683,-0.0050247
34.11,362.559,12.248,99.681,-0.0053911
34.16,363.059,12.247,99.678,-0.0055830
34.21,363.56,12.247,99.676,-0.0057266
34.26,364.06,12.247,99.673,-0.0055005
34.31,364.56,12.246,99.67,-0.0056422
34.36,365.06,12.246,99.667,-0.0055963
34.41,365.56,12.245,99.664,-0.0054109
34.46,366.06,12.245,99.662,-0.0057266
34.51,366.56,12.245,99.659,-0.0064067
34.56,367.06,12.244,99.656,-0.0057130
34.61,367.56,12.244,99.653,-0.0063049
34.66,368.06,12.244,99.649,-0.0059393
34.71,368.56,12.243,99.646,-0.0064502
34.76,369.061,12.243,99.643,-0.0067716
34.81,369.561,12.242,99.64,-0.0067270
34.86,370.061,12.242,99.636,-0.0069533
34.91,370.561,12.242,99.633,-0.0069991
34.96,371.061,12.241,99.629,-0.0073260
35.01,371.561,12.241,99.626,-0.0074176
35.06,372.061,12.24,99.622,-0.0073273
35.11,372.561,12.24,99.618,-0.0079329
35.16,373.061,12.239,99.615,-0.0077008
35.21,373.561,12.239,99.611,-0.0078856
35.26,374.061,12.238,99.607,-0.0077938
35.31,374.562,12.238,99.603,-0.0077437
35.36,375.062,12.237,99.598,-0.0083364
35.41,375.562,12.237,99.594,-0.0085654
35.46,376.062,12.236,99.59,-0.0086948
35.51,376.562,12.236,99.585,-0.0092864
35.56,377.062,12.235,99.581,-0.0092406
35.61,377.562,12.235,99.576,-0.0097421
35.66,378.062,12.234,99.571,-0.0097421
35.71,378.562,12.233,99.566,-0.0099214
35.76,379.062,12.233,99.561,-0.0102321
35.81,379.562,12.232,99.556,-0.0104205
35.86,380.063,12.232,99.551,-0.0108397
35.91,380.563,12.231,99.546,-0.0108457
35.96,381.063,12.23,99.54,-0.0110348
36.01,381.563,12.23,99.535,-0.0115533
36.06,382.063,12.229,99.529,-0.0117323
36.11,382.563,12.228,99.523,-0.0122320
36.16,383.063,12.227,99.517,-0.0120946
36.21,383.563,12.227,99.51,-0.0125573
36.26,384.063,12.226,99.504,-0.0128734
36.31,384.563,12.225,99.497,-0.0129508
36.36,385.063,12.224,99.491,-0.0137112
36.41,385.563,12.223,99.484,-0.0139320
36.46,386.064,12.222,99.476,-0.0146252
36.51,386.564,12.221,99.469,-0.0149212
36.56,387.064,12.221,99.462,-0.0154762
36.61,387.564,12.22,99.454,-0.0157509
36.66,388.064,12.219,99.446,-0.0159799
36.71,388.564,12.218,99.438,-0.0166605
36.76,389.064,12.217,99.429,-0.0172556
36.81,389.564,12.216,99.421,-0.0172982
36.86,390.064,12.214,99.412,-0.0179323
36.91,390.564,12.213,99.403,-0.0182000
36.96,391.064,12.212,99.393,-0.0188014
37.01,391.565,12.211,99.384,-0.0188541
37.06,392.065,12.21,99.374,-0.0196886
37.11,392.565,12.209,99.364,-0.0200549
37.16,393.065,12.207,99.354,-0.0207225
37.21,393.565,12.206,99.343,-0.0214940
37.26,394.065,12.205,99.332,-0.0222314
37.31,394.565,12.203,99.321,-0.0229274
37.36,395.065,12.202,99.309,-0.0231193
37.41,395.565,12.2,99.298,-0.0244864
37.46,396.065,12.199,99.285,-0.0247021
37.51,396.565,12.197,99.273,-0.0257197
37.56,397.066,12.196,99.26,-0.0259740
37.61,397.566,12.194,99.247,-0.0263522
37.66,398.066,12.193,99.233,-0.0271809
37.71,398.566,12.191,99.22,-0.0272087
37.76,399.066,12.189,99.206,-0.0279854
37.81,399.566,12.187,99.192,-0.0285259
37.86,400.066,12.186,99.177,-0.0291818
37.91,400.566,12.184,99.163,-0.0298800
37.96,401.066,12.182,99.148,-0.0304990
38.01,401.566,12.18,99.133,-0.0308743
38.06,402.066,12.178,99.117,-0.0316536
38.11,402.567,12.176,99.101,-0.0318471
38.16,403.067,12.174,99.085,-0.0327413
38.21,403.567,12.172,99.069,-0.0333485
38.26,404.067,12.17,99.052,-0.0340494
38.31,404.567,12.168,99.035,-0.0351520
38.36,405.067,12.166,99.017,-0.0353938
38.41,405.567,12.164,98.999,-0.0366502
38.46,406.067,12.161,98.981,-0.0372936
38.51,406.567,12.159,98.961,-0.0382321
38.56,407.067,12.157,98.942,-0.0391743
38.61,407.567,12.154,98.922,-0.0400147
38.66,408.068,12.152,98.902,-0.0408716
38.71,408.568,12.149,98.882,-0.0415293
38.76,409.068,12.147,98.861,-0.0423830
38.81,409.568,12.144,98.84,-0.0432122
38.86,410.068,12.141,98.818,-0.0442656
38.91,410.568,12.139,98.795,-0.0454212
38.96,411.068,12.136,98.772,-0.0465543
39.01,411.568,12.133,98.749,-0.0471785
39.06,412.068,12.13,98.725,-0.0486072
39.11,412.568,12.127,98.701,-0.0493403
39.16,413.068,12.124,98.676,-0.0506131
39.21,413.568,12.121,98.65,-0.0517651
39.26,414.069,12.118,98.624,-0.0529180
39.31,414.569,12.114,98.598,-0.0541368
39.36,415.069,12.111,98.57,-0.0555809
39.41,415.569,12.108,98.542,-0.0565683
39.46,416.069,12.104,98.513,-0.0580373
39.51,416.569,12.1,98.484,-0.0593321
39.56,417.069,12.097,98.454,-0.0604079
39.61,417.569,12.093,98.423,-0.0620311
39.66,418.069,12.089,98.392,-0.0634601
39.71,418.569,12.085,98.361,-0.0649854
39.76,419.069,12.081,98.328,-0.0669618
39.81,419.57,12.077,98.294,-0.0687809
39.86,420.07,12.073,98.259,-0.0707149
39.91,420.57,12.068,98.223,-0.0725688
39.96,421.07,12.064,98.186,-0.0747158
40.01,421.57,12.059,98.149,-0.0760312
40.06,422.07,12.054,98.109,-0.0786146
40.11,422.57,12.049,98.069,-0.0805403
40.16,423.07,12.044,98.028,-0.0828605
40.21,423.57,12.039,97.986,-0.0852709
40.26,424.07,12.034,97.943,-0.0877611
40.31,424.57,12.028,97.898,-0.0913875
40.36,425.071,12.023,97.85,-0.0976316
40.41,425.571,12.016,97.8,-0.1081420
40.46,426.071,12.01,97.744,-0.1152300
40.51,426.571,12.002,97.686,-0.1178390
40.56,427.071,11.995,97.626,-0.1254120
40.61,427.571,11.987,97.563,-0.1326010
40.66,428.071,11.979,97.498,-0.1276540
40.71,428.571,11.971,97.43,-0.1414060
40.76,429.071,11.962,97.358,-0.1465660
40.81,429.571,11.953,97.285,-0.1553160
40.86,430.071,11.944,97.21,-0.1558260
40.91,430.572,11.934,97.132,-0.1565360
40.96,431.072,11.924,97.05,-0.1723290
41.01,431.572,11.914,96.966,-0.1718070
41.06,432.072,11.903,96.879,-0.1755890
41.11,432.572,11.892,96.789,-0.1922400
41.16,433.072,11.88,96.692,-0.1988140
41.21,433.572,11.868,96.588,-0.2153300
41.26,434.072,11.855,96.485,-0.2140770
41.31,434.572,11.841,96.373,-0.2259960
41.36,435.072,11.827,96.255,-0.2386650
41.41,435.572,11.811,96.127,-0.2636150
41.46,436.073,11.794,95.988,-0.2796920
41.51,436.573,11.776,95.845,-0.2867790
41.56,437.073,11.758,95.694,-0.2952380
41.61,437.573,11.739,95.541,-0.3124540
41.66,438.073,11.719,95.379,-0.3343410
41.71,438.573,11.697,95.203,-0.3521540
41.76,439.073,11.675,95.018,-0.3831380
41.81,439.573,11.65,94.821,-0.3917570
41.86,440.073,11.626,94.62,-0.4035220
41.91,440.573,11.6,94.411,-0.4276510
41.96,441.073,11.573,94.189,-0.4373630
42.01,441.573,11.546,93.968,-0.4317490
42.06,442.074,11.519,93.751,-0.4453510
42.11,442.574,11.49,93.517,-0.4887090
42.16,443.074,11.459,93.264,-0.5312210
42.21,443.574,11.424,92.979,-0.5712640
42.26,444.074,11.387,92.679,-0.6171550
42.31,444.574,11.349,92.368,-0.6718470
42.36,445.074,11.306,92.02,-0.6808370
42.41,445.574,11.264,91.674,-0.7095930
42.46,446.074,11.22,91.317,-0.7112440
42.51,446.574,11.175,90.949,-0.7383930
42.56,447.074,11.127,90.564,-0.7999540
42.61,447.575,11.077,90.158,-0.8386190
42.66,448.075,11.026,89.739,-0.8410220
42.71,448.575,10.974,89.313,-0.8579130
42.76,449.075,10.918,88.864,-0.9211810
42.81,449.575,10.86,88.391,-0.9861330
42.86,450.075,10.799,87.895,-1.0252
42.91,450.575,10.735,87.372,-1.12083
42.96,451.075,10.666,86.806,-1.17021
43.01,451.575,10.593,86.215,-1.23752
43.06,452.075,10.52,85.617,-1.19256
43.11,452.575,10.446,85.015,-1.25568
43.16,453.076,10.364,84.349,-1.49959
43.21,453.576,10.276,83.631,-1.41391
43.26,454.076,10.186,82.905,-1.47202
43.31,454.576,10.095,82.158,-1.49509
43.36,455.076,10,81.391,-1.58268
43.41,455.576,9.9,80.576,-1.66333
43.46,456.076,9.795,79.722,-1.76014
43.51,456.576,9.684,78.82,-1.84258
43.56,457.076,9.565,77.852,-1.96724
43.61,457.576,9.445,76.873,-2.00742
43.66,458.076,9.318,75.835,-2.05634
43.71,458.577,9.187,74.771,-2.18786
43.76,459.077,9.044,73.604,-2.44067
43.81,459.577,8.892,72.371,-2.4869
43.86,460.077,8.737,71.108,-2.59197
43.91,460.577,8.572,69.766,-3.02304
43.96,461.077,8.393,68.313,-2.87179
44.01,461.577,8.2,66.741,-2.99767
44.06,462.077,7.997,65.089,-3.62621
44.11,462.577,7.778,63.302,-3.49659
44.16,463.077,7.559,61.522,-4.21342
44.21,463.577,7.339,59.73,-3.56895
44.26,464.078,7.113,57.892,-3.83677
44.31,464.578,6.873,55.938,-3.64173
44.36,465.078,6.642,54.057,-3.94937
44.41,465.578,6.405,52.132,-3.79337
44.46,466.078,6.175,50.259,-3.97952
44.51,466.578,5.921,48.189,-4.81304
44.56,467.078,5.686,46.279,-3.93196
44.61,467.578,5.457,44.415,-4.04785
44.66,468.078,5.215,42.441,-3.91949
44.71,468.578,4.966,40.422,-3.98496
44.76,469.078,4.724,38.446,-3.97489
44.81,469.578,4.478,36.445,-4.051
44.86,470.079,4.224,34.382,-4.2679
44.91,470.579,3.96,32.228,-4.33183
44.96,471.079,3.729,30.352,-3.5116
45.01,471.579,3.506,28.539,-3.69399
45.06,472.079,3.276,26.661,-3.76269
45.11,472.579,3.042,24.759,-3.81628
45.16,473.079,2.807,22.848,-3.80234
45.21,473.579,2.583,21.024,-3.61013
45.26,474.079,2.362,19.222,-3.57807
45.31,474.579,2.144,17.453,-3.51408
45.36,475.079,1.932,15.726,-3.4145
45.41,475.58,1.726,14.044,-3.30095
45.46,476.08,1.527,12.429,-3.16941
45.51,476.58,1.337,10.878,-3.028
45.56,477.08,1.157,9.415,-2.83131
45.61,477.58,0.9900000,8.061,-2.55851
45.66,478.08,0.8380000,6.818,-2.31057
45.71,478.58,0.7000000,5.699,-2.1268
45.76,479.08,0.5760000,4.684,-1.89052
45.81,479.58,0.4680000,3.811,-1.69925
45.86,480.08,0.3710000,3.019,-1.44514
45.91,480.58,0.2880000,2.343,-1.22606
45.96,481.081,0.2210000,1.797,-0.9799090
46.01,481.581,0.1650000,1.343,-0.7906160
46.06,482.081,0.1220000,0.9910000,-0.6133640
46.11,482.581,0.0900000,0.7290000,-0.4306410
46.16,483.081,0.0670000,0.5410000,-0.3068910
46.2,483.581,0.0510000,0.4160000,-0.2109660
46.25,484.081,0.0410000,0.3310000,-0.1340580
46.3,484.581,0.0340000,0.2780000,-0.0779817
46.35,485.081,0.0300000,0.2480000,-0.0429722
46.4,485.581,0.0280000,0.2250000,-0.0461938
46.45,486.081,0.0250000,0.2030000,-0.0441415
46.51,486.582,0.0220000,0.1810000,-0.0388588
46.56,487.082,0.0200000,0.1630000,-0.0329713
46.61,487.582,0.0180000,0.1480000,-0.0269843
46.66,488.082,0.0170000,0.1360000,-0.0217966
46.71,488.582,0.0160000,0.1270000,-0.0172489
46.76,489.082,0.0150000,0.1190000,-0.0134304
46.81,489.582,0.0140000,0.1130000,-0.0108052
46.86,490.082,0.0130000,0.1080000,-0.0081847
46.91,490.582,0.0130000,0.1040000,-0.0064018
46.96,491.082,0.0120000,0.1020000,-0.0053775
47.01,491.582,0.0120000,0.0990000,-0.0034874
47.06,492.083,0.0120000,0.0980000,-0.0028962
47.11,492.583,0.0120000,0.0960000,-0.0022678
47.16,493.083,0.0120000,0.0950000,-0.0015346
47.21,493.583,0.0120000,0.0950000,-0.0015920
47.26,494.083,0.0120000,0.0940000,-0.0006522
47.31,494.583,0.0120000,0.0940000,-0.0007812
47.36,495.083,0.0110000,0.0930000,-0.0006239
47.41,495.583,0.0110000,0.0930000,-0.0003225
47.46,496.083,0.0110000,0.0930000,-0.0003314
47.51,496.583,0.0110000,0.0930000,0.0000197
47.56,497.083,0.0110000,0.0930000,0.0003172
47.61,497.583,0.0110000,0.0930000,-0.0000208
47.66,498.084,0.0110000,0.0930000,-0.0004707
47.71,498.584,0.0110000,0.0930000,-0.0003703
47.76,499.084,0.0110000,0.0930000,-0.0000589
47.81,499.584,0.0110000,0.0930000,0.0003023
47.86,500.084,0.0110000,0.0930000,0.0002014
47.91,500.584,0.0110000,0.0930000,0.0003672
47.96,501.084,0.0110000,0.0930000,0.0001829
48.01,501.584,0.0110000,0.0930000,0.0002238
48.06,502.084,0.0110000,0.0930000,0.0001463
48.11,502.584,0.0110000,0.0930000,0.0003913
48.16,503.084,0.0120000,0.0940000,0.0002830
48.21,503.585,0.0120000,0.0940000,0.0002729
48.26,504.085,0.0120000,0.0940000,0.0000655
48.31,504.585,0.0120000,0.0940000,0.0002803
48.36,505.085,0.0120000,0.0940000,0.0006277
48.41,505.585,0.0120000,0.0940000,0.0004159
48.46,506.085,0.0120000,0.0940000,0.0002768
48.51,506.585,0.0120000,0.0950000,0.0002360
48.56,507.085,0.0120000,0.0950000,0.0000747
48.61,507.585,0.0120000,0.0950000,0.0000903
48.66,508.085,0.0120000,0.0950000,0.0003095
48.71,508.585,0.0120000,0.0950000,-0.0001172
48.76,509.086,0.0120000,0.0950000,0.0000938
48.81,509.586,0.0120000,0.0950000,0.0000940
48.86,510.086,0.0120000,0.0950000,0.0000492
48.91,510.586,0.0120000,0.0950000,-0.0000486
48.96,511.086,0.0120000,0.0950000,0.0003747
49.01,511.586,0.0120000,0.0950000,-0.0001402
49.06,512.086,0.0120000,0.0950000,0.0001101
49.11,512.586,0.0120000,0.0950000,0.0001738
49.16,513.086,0.0120000,0.0950000,0.0002767
49.21,513.586,0.0120000,0.0950000,-0.0001616
49.26,514.086,0.0120000,0.0960000,0.0002185
49.31,514.587,0.0120000,0.0960000,0.0002839
49.36,515.087,0.0120000,0.0960000,0.0002759
49.41,515.587,0.0120000,0.0960000,0.0004178
49.46,516.087,0.0120000,0.0960000,0.0003040
49.51,516.587,0.0120000,0.0960000,0.0003591
49.56,517.087,0.0120000,0.0960000,0.0001006
49.61,517.587,0.0120000,0.0960000,0.0000717
49.66,518.087,0.0120000,0.0960000,0.0000329
49.71,518.587,0.0120000,0.0960000,0.0000116
49.76,519.087,0.0120000,0.0960000,0.0003886
49.81,519.587,0.0120000,0.0960000,0.0002220
49.86,520.088,0.0120000,0.0970000,-0.0001683
49.91,520.588,0.0120000,0.0970000,0.0007812
49.96,521.088,0.0120000,0.0970000,0.0004319
50.01,521.588,0.0120000,0.0970000,0.0003296
50.06,522.088,0.0120000,0.0970000,0.0001200
50.11,522.588,0.0120000,0.0970000,0.0006349
50.16,523.088,0.0120000,0.0970000,0.0004013
50.21,523.588,0.0120000,0.0970000,-0.0000132
50.26,524.088,0.0120000,0.0970000,-0.0000770
50.31,524.588,0.0120000,0.0970000,0.0001131
50.36,525.088,0.0120000,0.0970000,0.0001337
50.41,525.588,0.0120000,0.0980000,0.0002135
50.46,526.089,0.0120000,0.0980000,0.0000455
50.51,526.589,0.0120000,0.0980000,0.0002401
50.56,527.089,0.0120000,0.0980000,0.0001801
50.61,527.589,0.0120000,0.0980000,0.0000334
50.66,528.089,0.0120000,0.0980000,0.0004684
50.71,528.589,0.0120000,0.0980000,-0.0000222
50.76,529.089,0.0120000,0.0980000,0.0001669
50.81,529.589,0.0120000,0.0980000,-0.0000212
50.86,530.089,0.0120000,0.0980000,-0.0002382
50.91,530.589,0.0120000,0.0980000,-0.0001714
50.96,531.089,0.0120000,0.0980000,-0.0000747
51.01,531.59,0.0120000,0.0980000,-0.0000918
51.06,532.09,0.0120000,0.0980000,0.0001228
51.11,532.59,0.0120000,0.0980000,0.0002941
51.16,533.09,0.0120000,0.0980000,0.0004267
51.21,533.59,0.0120000,0.0980000,0.0005611
51.26,534.09,0.0120000,0.0990000,0.0001931
51.31,534.59,0.0120000,0.0990000,0.0004129
51.36,535.09,0.0120000,0.0990000,0.0001002
51.41,535.59,0.0120000,0.0990000,-0.0000334
51.46,536.09,0.0120000,0.0990000,-0.0003864
51.51,536.59,0.0120000,0.0990000,-0.0002755
51.56,537.091,0.0120000,0.0990000,-0.0000694
51.61,537.591,0.0120000,0.0990000,0.0002795
51.66,538.091,0.0120000,0.0990000,0.0004128
51.71,538.591,0.0120000,0.0990000,0.0000222
51.76,539.091,0.0120000,0.0990000,-0.0000066
51.81,539.591,0.0120000,0.0990000,0.0001785
51.86,540.091,0.0120000,0.0990000,0.0003380
51.91,540.591,0.0120000,0.0990000,-0.0001380
51.96,541.091,0.0120000,0.0990000,-0.0005729
52.01,541.591,0.0120000,0.0990000,0.0002504
52.06,542.091,0.0120000,0.0990000,-0.0002116
52.11,542.592,0.0120000,0.0990000,0.0001003
52.16,543.092,0.0120000,0.0990000,0.0004167
52.21,543.592,0.0120000,0.0990000,-0.0000245
52.26,544.092,0.0120000,0.0990000,0.0001319
52.31,544.592,0.0120000,0.0990000,0.0003234
52.36,545.092,0.0120000,0.0990000,0.0005452
52.41,545.592,0.0120000,0.0990000,0.0001549
52.46,546.092,0.0120000,0.0990000,0.0003385
52.51,546.592,0.0120000,0.1000000,0.0003875
52.56,547.092,0.0120000,0.1000000,0.0004047
52.61,547.592,0.0120000,0.1000000,0.0000091
52.66,548.093,0.0120000,0.1000000,0.0003253
52.71,548.593,0.0120000,0.1000000,0.0003264
52.76,549.093,0.0120000,0.1000000,-0.0001552
52.81,549.593,0.0120000,0.1000000,-0.0003216
52.86,550.093,0.0120000,0.1000000,0.0002193
52.91,550.593,0.0120000,0.1000000,0.0002430
52.96,551.093,0.0120000,0.1000000,-0.0000503
53.01,551.593,0.0120000,0.1000000,0.0002757
53.06,552.093,0.0120000,0.1000000,0.0002073
53.11,552.593,0.0120000,0.1000000,0.0001513
53.16,553.093,0.0120000,0.1000000,-0.0001990
53.21,553.593,0.0120000,0.1000000,-0.0000419
53.26,554.094,0.0120000,0.1000000,0.0000750
53.31,554.594,0.0120000,0.1000000,0.0001992
53.36,555.094,0.0120000,0.1010000,0.0000336
53.41,555.594,0.0120000,0.1010000,0.0000910
53.46,556.094,0.0120000,0.1010000,0.0001436
53.51,556.594,0.0120000,0.1010000,-0.0000027
53.56,557.094,0.0120000,0.1010000,-0.0003175
53.6,557.594,0.0120000,0.1010000,0.0004327
53.65,558.094,0.0120000,0.1010000,-0.0005666
53.7,558.594,0.0120000,0.1010000,0.0003113
53.75,559.094,0.0120000,0.1010000,0.0003845
53.8,559.595,0.0120000,0.1010000,-0.0000295
53.85,560.095,0.0120000,0.1010000,-0.0001069
53.9,560.595,0.0120000,0.1010000,0.0004454
53.95,561.095,0.0120000,0.1010000,0.0000189
54,561.595,0.0120000,0.1010000,0.0000866
54.05,562.095,0.0120000,0.1010000,-0.0001698
54.1,562.595,0.0120000,0.1010000,0.0003951
54.15,563.095,0.0120000,0.1010000,-0.0005652
54.2,563.595,0.0120000,0.1010000,0.0001506
54.25,564.095,0.0120000,0.1010000,-0.0002107
54.3,564.595,0.0120000,0.1010000,-0.0000987
54.35,565.096,0.0120000,0.1010000,0.0000272
54.4,565.596,0.0120000,0.1010000,-0.0003253
54.45,566.096,0.0120000,0.1010000,0.0003738
54.5,566.596,0.0120000,0.1010000,0.0000062
54.55,567.096,0.0120000,0.1000000,0.0002445
54.6,567.596,0.0120000,0.1010000,0.0001608
54.65,568.096,0.0120000,0.1010000,0.0003400
54.7,568.596,0.0120000,0.1010000,0.0004546
54.75,569.096,0.0120000,0.1010000,-0.0002001
54.8,569.596,0.0120000,0.1010000,-0.0001699
54.85,570.096,0.0120000,0.1010000,0.0000503
54.9,570.597,0.0120000,0.1010000,-0.0000197
54.95,571.097,0.0120000,0.1010000,0.0001717
55,571.597,0.0120000,0.1010000,-0.0003905
55.05,572.097,0.0120000,0.1010000,-0.0000754
55.1,572.597,0.0120000,0.1010000,-0.0000725
55.15,573.097,0.0120000,0.1010000,-0.0000163
55.2,573.597,0.0120000,0.1010000,0.0002075
55.25,574.097,0.0120000,0.1010000,-0.0000597
55.3,574.597,0.0120000,0.1010000,-0.0000357
55.35,575.097,0.0120000,0.1010000,0.0004628
55.4,575.597,0.0120000,0.1010000,0.0003312
55.45,576.098,0.0120000,0.1010000,0.0001857
55.5,576.598,0.0120000,0.1010000,0.0000900
55.55,577.098,0.0120000,0.1010000,0.0001654
55.6,577.598,0.0120000,0.1010000,0.0003694
55.65,578.098,0.0120000,0.1010000,-0.0003383
55.7,578.598,0.0120000,0.1010000,-0.0000266
55.75,579.098,0.0120000,0.1010000,0.0002752
55.8,579.598,0.0120000,0.1010000,0.0003629
55.85,580.098,0.0120000,0.1020000,0.0000815
55.9,580.598,0.0120000,0.1020000,-0.0000027
55.95,581.098,0.0120000,0.1020000,0.0002522
56,581.598,0.0120000,0.1020000,-0.0001145
56.05,582.099,0.0120000,0.1020000,0.0003064
56.1,582.599,0.0130000,0.1020000,0.0005035
56.15,583.099,0.0130000,0.1020000,0.0003490
56.2,583.599,0.0130000,0.1020000,0.0005181
56.25,584.099,0.0130000,0.1020000,0.0002166
56.3,584.599,0.0130000,0.1020000,0.0001136
56.35,585.099,0.0130000,0.1030000,0.0003681
56.4,585.599,0.0130000,0.1030000,0.0002922
56.45,586.099,0.0130000,0.1030000,0.0000309
56.5,586.599,0.0130000,0.1030000,0.0001827
56.55,587.099,0.0130000,0.1030000,-0.0000706
56.6,587.6,0.0130000,0.1030000,0.0000985
56.65,588.1,0.0130000,0.1030000,-0.0000322
56.7,588.6,0.0130000,0.1030000,0.0002826
56.75,589.1,0.0130000,0.1030000,0.0004781
56.8,589.6,0.0130000,0.1040000,0.0003588
56.84,590,0.0130000,0.1040000,0.0004155