File: R/rHDPE_App/app/www/Output/TGA/Condensed_Data/Resin10_0_.csv
0.6800000,30,15.047,100.01,0.0030600
0.7500000,30.5001,15.048,100.012,0.0009584
0.8200000,31.0002,15.048,100.014,0.0041604
0.8900000,31.5003,15.048,100.015,0.0039248
0.9500000,32.0004,15.048,100.017,0.0030776
1.01,32.5004,15.048,100.017,0.0028429
1.07,33.0005,15.048,100.018,0.0022538
1.13,33.5006,15.049,100.019,0.0012172
1.18,34.0007,15.049,100.02,0.0000523
1.24,34.5008,15.049,100.02,0.0020747
1.3,35.0009,15.049,100.021,-0.0002572
1.35,35.501,15.049,100.021,0.0015320
1.41,36.0011,15.049,100.021,0.0011157
1.46,36.5012,15.049,100.022,0.0005544
1.52,37.0013,15.049,100.022,0.0005017
1.57,37.5013,15.049,100.023,0.0009975
1.63,38.0014,15.049,100.023,0.0017893
1.68,38.5015,15.049,100.024,0.0019318
1.74,39.0016,15.049,100.025,0.0006910
1.79,39.5017,15.05,100.026,0.0008847
1.84,40.0018,15.05,100.026,0.0008821
1.9,40.5019,15.05,100.027,0.0002931
1.95,41.002,15.05,100.027,0.0013650
2,41.5021,15.05,100.027,0.0006329
2.06,42.0021,15.05,100.028,0.0006319
2.11,42.5022,15.05,100.028,0.0008255
2.16,43.0023,15.05,100.028,0.0002424
2.21,43.5024,15.05,100.029,0.0002422
2.27,44.0025,15.05,100.029,0.0009193
2.32,44.5026,15.05,100.03,0.0007731
2.37,45.0027,15.05,100.03,0.0004824
2.43,45.5028,15.05,100.031,0.0008672
2.48,46.0029,15.05,100.031,0.0009140
2.53,46.5029,15.05,100.032,0.0007679
2.58,47.003,15.051,100.032,0.0008618
2.64,47.5031,15.051,100.032,0.0010992
2.69,48.0032,15.051,100.033,0.0010495
2.74,48.5033,15.051,100.033,0.0007143
2.79,49.0034,15.051,100.034,0.0006658
2.84,49.5035,15.051,100.034,0.0009020
2.9,50.0036,15.051,100.035,0.0013272
2.95,50.5037,15.051,100.035,0.0008048
3,51.0038,15.051,100.036,0.0007090
3.05,51.5038,15.051,100.036,0.0008499
3.1,52.0039,15.051,100.037,0.0006599
3.16,52.504,15.051,100.037,0.0007061
3.21,53.0041,15.051,100.037,0.0007997
3.26,53.5042,15.051,100.038,0.0006578
3.31,54.0043,15.052,100.038,0.0008916
3.36,54.5044,15.052,100.039,0.0009377
3.41,55.0045,15.052,100.039,0.0008434
3.46,55.5046,15.052,100.04,0.0009829
3.51,56.0046,15.052,100.04,0.0007476
3.56,56.5047,15.052,100.04,0.0009806
3.61,57.0048,15.052,100.041,0.0011665
3.66,57.5049,15.052,100.041,0.0010255
3.72,58.005,15.052,100.042,0.0008385
3.77,58.5051,15.052,100.042,0.0009311
3.82,59.0052,15.052,100.042,0.0009778
3.87,59.5053,15.052,100.043,0.0004649
3.92,60.0054,15.052,100.043,0.0007897
3.97,60.5054,15.052,100.043,0.0007426
4.02,61.0055,15.052,100.044,0.0007880
4.07,61.5056,15.052,100.044,0.0009267
4.12,62.0057,15.052,100.045,0.0008799
4.17,62.5058,15.053,100.045,0.0008791
4.22,63.0059,15.053,100.045,0.0009714
4.28,63.506,15.053,100.046,0.0006934
4.33,64.0061,15.053,100.046,0.0006006
4.38,64.5062,15.053,100.046,0.0009696
4.43,65.0063,15.053,100.047,0.0011078
4.48,65.5063,15.053,100.047,0.0008307
4.53,66.0064,15.053,100.048,0.0007840
4.58,66.5065,15.053,100.048,0.0006454
4.63,67.0066,15.053,100.048,0.0005070
4.68,67.5067,15.053,100.048,0.0001843
4.73,68.0068,15.053,100.049,0.0005064
4.78,68.5069,15.053,100.049,0.0003223
4.83,69.007,15.053,100.049,0.0005527
4.88,69.5071,15.053,100.049,0.0002303
4.93,70.0071,15.053,100.05,0.0005984
4.98,70.5072,15.053,100.05,0.0003221
5.03,71.0073,15.053,100.05,0.0005976
5.08,71.5074,15.053,100.05,0.0005975
5.13,72.0075,15.053,100.051,0.0002297
5.18,72.5076,15.053,100.051,0.0004135
5.23,73.0077,15.053,100.051,0.0006886
5.28,73.5078,15.053,100.051,0.0004132
5.33,74.0079,15.054,100.052,0.0004589
5.38,74.5079,15.054,100.052,0.0004584
5.43,75.008,15.054,100.052,0.0004585
5.48,75.5081,15.054,100.052,0.0003667
5.53,76.0082,15.054,100.053,0.0002292
5.58,76.5083,15.054,100.053,0.0005497
5.63,77.0084,15.054,100.053,0.0004581
5.68,77.5085,15.054,100.053,0.0004577
5.73,78.0086,15.054,100.053,0.0005493
5.78,78.5087,15.054,100.054,0.0003205
5.83,79.0088,15.054,100.054,0.0001832
5.88,79.5088,15.054,100.054,0.0003664
5.93,80.0089,15.054,100.054,0.0001832
5.98,80.509,15.054,100.054,0.0000000
6.03,81.0091,15.054,100.055,0.0004121
6.08,81.5092,15.054,100.055,0.0000000
6.13,82.0093,15.054,100.055,0.0001830
6.18,82.5094,15.054,100.055,0.0002288
6.23,83.0095,15.054,100.055,0.0003657
6.28,83.5096,15.054,100.055,0.0008691
6.33,84.0096,15.054,100.056,0.0000458
6.38,84.5097,15.054,100.056,0.0005948
6.43,85.0098,15.054,100.056,0.0003660
6.48,85.5099,15.054,100.056,0.0002287
6.53,86.01,15.054,100.056,0.0005029
6.58,86.5101,15.054,100.056,0.0002288
6.63,87.0102,15.054,100.056,0.0002288
6.68,87.5103,15.054,100.057,0.0002746
6.73,88.0104,15.054,100.057,0.0005035
6.78,88.5104,15.054,100.057,0.0004119
6.83,89.0105,15.054,100.057,0.0002291
6.88,89.5106,15.054,100.057,-0.0003661
6.93,90.0107,15.054,100.057,0.0000915
6.98,90.5108,15.054,100.057,0.0005489
7.03,91.0109,15.054,100.057,0.0003202
7.08,91.511,15.054,100.057,-0.0000915
7.13,92.0111,15.054,100.057,-0.0000915
7.18,92.5112,15.054,100.058,0.0000457
7.23,93.0113,15.054,100.058,0.0002743
7.28,93.5113,15.054,100.058,-0.0001828
7.33,94.0114,15.054,100.058,0.0000457
7.38,94.5115,15.054,100.058,0.0000000
7.43,95.0116,15.054,100.058,0.0003201
7.48,95.5117,15.055,100.058,0.0004571
7.53,96.0118,15.055,100.058,0.0002744
7.58,96.5119,15.055,100.058,0.0002286
7.63,97.012,15.055,100.058,-0.0000914
7.68,97.5121,15.055,100.058,-0.0000000
7.73,98.0121,15.055,100.058,0.0000000
7.78,98.5122,15.055,100.058,-0.0001829
7.83,99.0123,15.055,100.059,-0.0001830
7.88,99.5124,15.055,100.058,-0.0001373
7.93,100.013,15.055,100.058,-0.0002747
7.98,100.513,15.055,100.058,0.0003662
8.03,101.013,15.055,100.058,-0.0005496
8.08,101.513,15.055,100.058,-0.0000916
8.13,102.013,15.054,100.058,-0.0000916
8.18,102.513,15.054,100.058,0.0001833
8.23,103.013,15.054,100.058,-0.0003664
8.28,103.513,15.054,100.058,-0.0003663
8.33,104.013,15.054,100.058,-0.0001373
8.38,104.513,15.054,100.058,0.0000000
8.43,105.013,15.054,100.057,-0.0006404
8.48,105.513,15.054,100.057,-0.0001829
8.53,106.014,15.054,100.057,0.0000914
8.58,106.514,15.054,100.057,-0.0001372
8.63,107.014,15.054,100.057,-0.0000915
8.68,107.514,15.054,100.057,-0.0000915
8.73,108.014,15.054,100.057,-0.0004578
8.78,108.514,15.054,100.057,0.0000000
8.83,109.014,15.054,100.057,0.0000000
8.88,109.514,15.054,100.057,-0.0002742
8.93,110.014,15.054,100.057,-0.0004568
8.98,110.514,15.054,100.056,-0.0005483
9.03,111.014,15.054,100.056,-0.0008298
9.08,111.515,15.054,100.056,-0.0005545
9.13,112.015,15.054,100.056,-0.0007392
9.18,112.515,15.054,100.056,-0.0006001
9.23,113.015,15.054,100.056,-0.0005062
9.28,113.515,15.054,100.055,-0.0003673
9.33,114.015,15.054,100.055,-0.0005956
9.38,114.515,15.054,100.055,-0.0005492
9.43,115.015,15.054,100.055,0.0001372
9.48,115.515,15.054,100.055,-0.0000914
9.53,116.015,15.054,100.054,-0.0000913
9.58,116.515,15.054,100.054,-0.0004109
9.63,117.016,15.054,100.054,-0.0002281
9.68,117.516,15.054,100.054,-0.0002281
9.73,118.016,15.054,100.054,-0.0003643
9.78,118.516,15.054,100.053,-0.0007751
9.83,119.016,15.054,100.053,-0.0007762
9.88,119.516,15.054,100.053,-0.0002743
9.93,120.016,15.054,100.053,0.0000000
9.98,120.516,15.054,100.053,-0.0003660
10.03,121.016,15.054,100.053,-0.0001829
10.08,121.516,15.054,100.053,0.0001372
10.13,122.016,15.054,100.053,-0.0004116
10.18,122.517,15.054,100.053,0.0009607
10.23,123.017,15.054,100.053,-0.0003206
10.28,123.517,15.054,100.052,-0.0004126
10.33,124.017,15.054,100.052,-0.0003210
10.38,124.517,15.054,100.052,-0.0004128
10.43,125.017,15.054,100.052,-0.0007798
10.48,125.517,15.053,100.051,-0.0010090
10.53,126.017,15.053,100.051,-0.0004581
10.58,126.517,15.053,100.051,0.0000000
10.63,127.017,15.053,100.051,0.0001374
10.68,127.517,15.053,100.051,-0.0005038
10.73,128.018,15.053,100.051,-0.0009622
10.78,128.518,15.053,100.05,-0.0003208
10.83,129.018,15.053,100.05,0.0005501
10.88,129.518,15.053,100.05,-0.0004128
10.93,130.018,15.053,100.05,-0.0009624
10.98,130.518,15.053,100.049,-0.0008249
11.03,131.018,15.053,100.049,-0.0008251
11.08,131.518,15.053,100.049,-0.0005042
11.13,132.018,15.053,100.049,-0.0006872
11.18,132.518,15.053,100.048,-0.0006417
11.23,133.018,15.053,100.048,-0.0005499
11.28,133.518,15.053,100.048,0.0000000
11.33,134.019,15.053,100.048,-0.0001373
11.38,134.519,15.053,100.048,-0.0005493
11.43,135.019,15.053,100.047,-0.0007321
11.48,135.519,15.053,100.047,-0.0008236
11.53,136.019,15.053,100.046,-0.0010521
11.58,136.519,15.053,100.046,-0.0010058
11.63,137.019,15.053,100.045,-0.0016446
11.68,137.519,15.052,100.045,-0.0017816
11.73,138.019,15.052,100.044,-0.0017349
11.78,138.519,15.052,100.043,-0.0014616
11.83,139.019,15.052,100.042,-0.0019635
11.88,139.52,15.052,100.041,-0.0020966
11.93,140.02,15.052,100.04,-0.0024579
11.98,140.52,15.052,100.039,-0.0024124
12.03,141.02,15.051,100.037,-0.0024097
12.08,141.52,15.051,100.036,-0.0029091
12.13,142.02,15.051,100.035,-0.0031364
12.18,142.52,15.051,100.033,-0.0025928
12.23,143.02,15.051,100.032,-0.0023686
12.28,143.52,15.05,100.031,-0.0024619
12.33,144.02,15.05,100.029,-0.0023731
12.38,144.52,15.05,100.028,-0.0026496
12.43,145.021,15.05,100.027,-0.0027440
12.48,145.521,15.05,100.026,-0.0018776
12.53,146.021,15.049,100.025,-0.0025658
12.58,146.521,15.049,100.024,-0.0026147
12.63,147.021,15.049,100.023,-0.0017914
12.68,147.521,15.049,100.022,-0.0025257
12.73,148.021,15.049,100.021,-0.0018837
12.78,148.521,15.049,100.02,-0.0017919
12.83,149.021,15.049,100.019,-0.0014710
12.88,149.521,15.048,100.018,-0.0017455
12.93,150.021,15.048,100.017,-0.0018369
12.98,150.522,15.048,100.016,-0.0020684
13.03,151.022,15.048,100.015,-0.0018825
13.08,151.522,15.048,100.014,-0.0019282
13.13,152.022,15.048,100.013,-0.0021590
13.18,152.522,15.048,100.012,-0.0017476
13.23,153.022,15.047,100.011,-0.0015615
13.28,153.522,15.047,100.01,-0.0019255
13.33,154.022,15.047,100.009,-0.0018807
13.38,154.522,15.047,100.008,-0.0019278
13.43,155.022,15.047,100.007,-0.0017436
13.48,155.522,15.047,100.006,-0.0020187
13.53,156.023,15.047,100.005,-0.0023388
13.58,156.523,15.046,100.004,-0.0021556
13.63,157.023,15.046,100.003,-0.0021107
13.68,157.523,15.046,100.002,-0.0019275
13.73,158.023,15.046,100.001,-0.0022481
13.78,158.523,15.046,100,-0.0020178
13.83,159.023,15.046,99.999,-0.0023840
13.88,159.523,15.045,99.998,-0.0019729
13.93,160.023,15.045,99.997,-0.0017881
13.98,160.523,15.045,99.996,-0.0017431
14.03,161.023,15.045,99.995,-0.0022477
14.08,161.523,15.045,99.994,-0.0021101
14.13,162.024,15.045,99.993,-0.0022934
14.18,162.524,15.045,99.992,-0.0018354
14.23,163.024,15.044,99.991,-0.0021554
14.28,163.524,15.044,99.99,-0.0024736
14.33,164.024,15.044,99.989,-0.0023810
14.38,164.524,15.044,99.988,-0.0022434
14.43,165.024,15.044,99.987,-0.0020616
14.48,165.524,15.044,99.985,-0.0022450
14.53,166.024,15.043,99.984,-0.0022008
14.58,166.524,15.043,99.983,-0.0020637
14.63,167.024,15.043,99.982,-0.0022004
14.68,167.525,15.043,99.981,-0.0023849
14.73,168.025,15.043,99.98,-0.0024771
14.78,168.525,15.043,99.978,-0.0026178
14.83,169.025,15.042,99.977,-0.0026625
14.88,169.525,15.042,99.976,-0.0022929
14.93,170.025,15.042,99.975,-0.0021553
14.98,170.525,15.042,99.974,-0.0022461
15.03,171.025,15.042,99.972,-0.0022925
15.08,171.525,15.041,99.971,-0.0020174
15.13,172.025,15.041,99.97,-0.0020629
15.18,172.525,15.041,99.969,-0.0021992
15.23,173.026,15.041,99.968,-0.0016423
15.28,173.526,15.041,99.967,-0.0016434
15.33,174.026,15.041,99.965,-0.0032173
15.38,174.526,15.04,99.964,-0.0031763
15.43,175.026,15.04,99.962,-0.0029011
15.49,175.526,15.04,99.961,-0.0034946
15.54,176.026,15.04,99.959,-0.0031256
15.59,176.526,15.039,99.958,-0.0031680
15.64,177.026,15.039,99.956,-0.0031159
15.69,177.526,15.039,99.955,-0.0033447
15.74,178.026,15.039,99.953,-0.0030226
15.79,178.527,15.039,99.952,-0.0027007
15.84,179.027,15.038,99.95,-0.0027908
15.89,179.527,15.038,99.949,-0.0024242
15.94,180.027,15.038,99.948,-0.0027892
15.99,180.527,15.038,99.946,-0.0025132
16.04,181.027,15.037,99.945,-0.0025121
16.09,181.527,15.037,99.943,-0.0025121
16.14,182.027,15.037,99.942,-0.0028783
16.19,182.527,15.037,99.941,-0.0029245
16.24,183.027,15.037,99.939,-0.0027435
16.29,183.527,15.036,99.938,-0.0029743
16.34,184.028,15.036,99.936,-0.0028865
16.39,184.528,15.036,99.935,-0.0031622
16.44,185.028,15.036,99.933,-0.0029339
16.49,185.528,15.036,99.932,-0.0030256
16.54,186.028,15.035,99.931,-0.0031170
16.59,186.528,15.035,99.929,-0.0029778
16.64,187.028,15.035,99.928,-0.0027478
16.69,187.528,15.035,99.926,-0.0028388
16.74,188.028,15.034,99.925,-0.0030220
16.79,188.528,15.034,99.923,-0.0032051
16.84,189.028,15.034,99.922,-0.0031127
16.89,189.528,15.034,99.92,-0.0031579
16.94,190.029,15.034,99.919,-0.0031107
16.99,190.529,15.033,99.917,-0.0027457
17.04,191.029,15.033,99.916,-0.0025641
17.09,191.529,15.033,99.914,-0.0028383
17.14,192.029,15.033,99.913,-0.0031602
17.19,192.529,15.032,99.911,-0.0032054
17.24,193.029,15.032,99.909,-0.0032973
17.29,193.529,15.032,99.908,-0.0032530
17.34,194.029,15.032,99.906,-0.0033920
17.39,194.529,15.031,99.905,-0.0032548
17.44,195.029,15.031,99.903,-0.0030714
17.49,195.53,15.031,99.902,-0.0029350
17.54,196.03,15.031,99.9,-0.0030720
17.59,196.53,15.03,99.898,-0.0029786
17.64,197.03,15.03,99.897,-0.0033898
17.69,197.53,15.03,99.895,-0.0031136
17.74,198.03,15.03,99.894,-0.0033416
17.79,198.53,15.03,99.892,-0.0031556
17.84,199.03,15.029,99.891,-0.0033852
17.89,199.53,15.029,99.889,-0.0030666
17.94,200.03,15.029,99.887,-0.0030678
17.99,200.53,15.029,99.886,-0.0031579
18.04,201.031,15.028,99.884,-0.0030692
18.09,201.531,15.028,99.883,-0.0033018
18.14,202.031,15.028,99.881,-0.0036249
18.19,202.531,15.028,99.879,-0.0033037
18.24,203.031,15.027,99.878,-0.0033019
18.29,203.531,15.027,99.876,-0.0034350
18.34,204.031,15.027,99.874,-0.0032518
18.39,204.531,15.027,99.873,-0.0034846
18.44,205.031,15.026,99.871,-0.0033456
18.49,205.531,15.026,99.869,-0.0032078
18.54,206.031,15.026,99.867,-0.0034388
18.59,206.532,15.026,99.866,-0.0035796
18.64,207.032,15.025,99.864,-0.0033992
18.69,207.532,15.025,99.862,-0.0033967
18.74,208.032,15.025,99.86,-0.0033930
18.79,208.532,15.024,99.859,-0.0036677
18.84,209.032,15.024,99.857,-0.0036664
18.89,209.532,15.024,99.855,-0.0034331
18.94,210.032,15.024,99.854,-0.0033410
18.99,210.532,15.023,99.852,-0.0032027
19.04,211.032,15.023,99.85,-0.0034357
19.09,211.532,15.023,99.848,-0.0033935
19.14,212.033,15.023,99.846,-0.0035331
19.19,212.533,15.022,99.845,-0.0035770
19.24,213.033,15.022,99.843,-0.0036674
19.29,213.533,15.022,99.841,-0.0034360
19.34,214.033,15.022,99.839,-0.0035705
19.39,214.533,15.021,99.838,-0.0036613
19.44,215.033,15.021,99.836,-0.0035266
19.49,215.533,15.021,99.834,-0.0035721
19.54,216.033,15.021,99.832,-0.0035705
19.59,216.533,15.02,99.831,-0.0035698
19.64,217.033,15.02,99.829,-0.0035731
19.69,217.533,15.02,99.827,-0.0031622
19.74,218.034,15.019,99.825,-0.0033028
19.79,218.534,15.019,99.824,-0.0035337
19.84,219.034,15.019,99.822,-0.0034856
19.89,219.534,15.019,99.82,-0.0033898
19.94,220.034,15.018,99.818,-0.0036674
19.99,220.534,15.018,99.816,-0.0038486
20.04,221.034,15.018,99.815,-0.0038028
20.09,221.534,15.018,99.813,-0.0039352
20.14,222.034,15.017,99.811,-0.0038866
20.19,222.534,15.017,99.809,-0.0038905
20.24,223.034,15.017,99.807,-0.0036664
20.29,223.535,15.016,99.805,-0.0035305
20.34,224.035,15.016,99.803,-0.0034398
20.39,224.535,15.016,99.802,-0.0035737
20.44,225.035,15.016,99.8,-0.0037570
20.49,225.535,15.015,99.798,-0.0039872
20.54,226.035,15.015,99.796,-0.0044509
20.59,226.535,15.015,99.794,-0.0033465
20.64,227.035,15.015,99.792,-0.0039835
20.69,227.535,15.014,99.79,-0.0038902
20.74,228.035,15.014,99.788,-0.0039341
20.79,228.535,15.014,99.787,-0.0035224
20.84,229.036,15.013,99.785,-0.0036139
20.89,229.536,15.013,99.783,-0.0036587
20.94,230.036,15.013,99.781,-0.0037522
20.99,230.536,15.013,99.779,-0.0038894
21.04,231.036,15.012,99.777,-0.0037580
21.09,231.536,15.012,99.775,-0.0038483
21.14,232.036,15.012,99.773,-0.0040777
21.19,232.536,15.011,99.771,-0.0038944
21.24,233.036,15.011,99.769,-0.0038955
21.29,233.536,15.011,99.767,-0.0037129
21.34,234.036,15.01,99.765,-0.0041736
21.39,234.537,15.01,99.764,-0.0040385
21.44,235.037,15.01,99.762,-0.0041793
21.49,235.537,15.01,99.76,-0.0042720
21.54,236.037,15.009,99.758,-0.0039496
21.59,236.537,15.009,99.756,-0.0038991
21.64,237.037,15.009,99.754,-0.0041269
21.69,237.537,15.008,99.752,-0.0037570
21.74,238.037,15.008,99.75,-0.0035266
21.79,238.537,15.008,99.748,-0.0036139
21.84,239.037,15.008,99.746,-0.0035195
21.89,239.537,15.007,99.744,-0.0037419
21.94,240.038,15.007,99.742,-0.0039755
21.99,240.538,15.007,99.74,-0.0038462
22.04,241.038,15.006,99.738,-0.0039413
22.09,241.538,15.006,99.736,-0.0042633
22.14,242.038,15.006,99.734,-0.0038973
22.19,242.538,15.005,99.732,-0.0040349
22.24,243.038,15.005,99.73,-0.0040770
22.29,243.538,15.005,99.728,-0.0040788
22.34,244.038,15.005,99.726,-0.0041705
22.39,244.538,15.004,99.724,-0.0040386
22.44,245.038,15.004,99.722,-0.0038963
22.49,245.538,15.004,99.72,-0.0037528
22.54,246.039,15.003,99.718,-0.0041179
22.59,246.539,15.003,99.716,-0.0040341
22.64,247.039,15.003,99.714,-0.0041322
22.69,247.539,15.002,99.712,-0.0041247
22.74,248.039,15.002,99.71,-0.0039788
22.79,248.539,15.002,99.708,-0.0040212
22.84,249.039,15.002,99.706,-0.0040669
22.89,249.539,15.001,99.704,-0.0044843
22.94,250.039,15.001,99.702,-0.0038955
22.99,250.539,15.001,99.7,-0.0038539
23.04,251.039,15,99.697,-0.0041220
23.09,251.54,15,99.696,-0.0036627
23.14,252.04,15,99.693,-0.0038532
23.19,252.54,14.999,99.691,-0.0031622
23.24,253.04,14.999,99.689,-0.0041724
23.29,253.54,14.999,99.687,-0.0038902
23.34,254.04,14.998,99.685,-0.0043868
23.39,254.54,14.998,99.683,-0.0044394
23.44,255.04,14.998,99.681,-0.0043526
23.49,255.54,14.997,99.679,-0.0041296
23.54,256.04,14.997,99.677,-0.0039886
23.59,256.54,14.997,99.675,-0.0043522
23.64,257.041,14.997,99.673,-0.0034303
23.69,257.541,14.996,99.671,-0.0034309
23.74,258.041,14.996,99.669,-0.0038025
23.79,258.541,14.996,99.667,-0.0036185
23.84,259.041,14.995,99.665,-0.0015070
23.89,259.541,14.995,99.664,-0.0037784
23.94,260.041,14.995,99.661,-0.0041322
23.99,260.541,14.994,99.659,-0.0047492
24.04,261.041,14.994,99.657,-0.0042758
24.09,261.541,14.994,99.655,-0.0041036
24.14,262.041,14.994,99.653,-0.0045778
24.19,262.542,14.993,99.651,-0.0041323
24.24,263.042,14.993,99.648,-0.0044264
24.29,263.542,14.992,99.646,-0.0040166
24.34,264.042,14.992,99.644,-0.0046725
24.39,264.542,14.992,99.642,-0.0047178
24.44,265.042,14.991,99.639,-0.0042052
24.49,265.542,14.991,99.637,-0.0042091
24.54,266.042,14.991,99.635,-0.0041021
24.59,266.542,14.99,99.633,-0.0045086
24.64,267.042,14.99,99.63,-0.0047821
24.69,267.542,14.99,99.628,-0.0048669
24.74,268.043,14.989,99.626,-0.0044062
24.79,268.543,14.989,99.624,-0.0043593
24.84,269.043,14.989,99.621,-0.0044905
24.89,269.543,14.988,99.619,-0.0048571
24.94,270.043,14.988,99.617,-0.0038475
24.99,270.543,14.988,99.615,-0.0042606
25.04,271.043,14.987,99.612,-0.0042582
25.09,271.543,14.987,99.61,-0.0045347
25.14,272.043,14.987,99.608,-0.0042637
25.19,272.543,14.986,99.606,-0.0042101
25.24,273.043,14.986,99.604,-0.0044398
25.29,273.543,14.986,99.601,-0.0039377
25.34,274.044,14.985,99.599,-0.0049522
25.39,274.544,14.985,99.597,-0.0052627
25.44,275.044,14.985,99.594,-0.0046678
25.49,275.544,14.984,99.592,-0.0047619
25.54,276.044,14.984,99.589,-0.0046746
25.59,276.544,14.984,99.587,-0.0048094
25.64,277.044,14.983,99.585,-0.0049083
25.69,277.544,14.983,99.582,-0.0044905
25.74,278.044,14.983,99.58,-0.0048095
25.79,278.544,14.982,99.577,-0.0049881
25.84,279.044,14.982,99.575,-0.0051674
25.89,279.545,14.981,99.572,-0.0047989
25.94,280.045,14.981,99.57,-0.0048948
25.99,280.545,14.981,99.567,-0.0048993
26.04,281.045,14.98,99.565,-0.0051788
26.09,281.545,14.98,99.563,-0.0044937
26.14,282.045,14.98,99.56,-0.0047654
26.19,282.545,14.979,99.558,-0.0050898
26.24,283.045,14.979,99.555,-0.0050394
26.29,283.545,14.978,99.553,-0.0050824
26.34,284.045,14.978,99.55,-0.0047188
26.39,284.545,14.978,99.548,-0.0052178
26.44,285.046,14.977,99.545,-0.0053473
26.49,285.546,14.977,99.543,-0.0052540
26.54,286.046,14.977,99.54,-0.0049378
26.59,286.546,14.976,99.537,-0.0048535
26.64,287.046,14.976,99.535,-0.0051835
26.69,287.546,14.975,99.533,-0.0050917
26.74,288.046,14.975,99.53,-0.0048651
26.79,288.546,14.975,99.528,-0.0048203
26.85,289.046,14.974,99.525,-0.0052667
26.9,289.546,14.974,99.523,-0.0049767
26.95,290.046,14.974,99.52,-0.0054267
27,290.547,14.973,99.517,-0.0058118
27.05,291.047,14.973,99.515,-0.0055576
27.1,291.547,14.972,99.512,-0.0051740
27.15,292.047,14.972,99.509,-0.0049772
27.2,292.547,14.972,99.507,-0.0053715
27.25,293.047,14.971,99.504,-0.0052737
27.3,293.547,14.971,99.501,-0.0051335
27.35,294.047,14.97,99.499,-0.0050454
27.4,294.547,14.97,99.496,-0.0054545
27.45,295.047,14.97,99.493,-0.0055050
27.5,295.547,14.969,99.491,-0.0055536
27.55,296.048,14.969,99.488,-0.0057430
27.6,296.548,14.968,99.485,-0.0056143
27.65,297.048,14.968,99.482,-0.0056673
27.7,297.548,14.967,99.48,-0.0058991
27.75,298.048,14.967,99.477,-0.0054417
27.8,298.548,14.967,99.474,-0.0056267
27.85,299.048,14.966,99.471,-0.0053990
27.9,299.548,14.966,99.468,-0.0056288
27.95,300.048,14.965,99.466,-0.0053542
28,300.548,14.965,99.463,-0.0057213
28.05,301.048,14.964,99.46,-0.0056319
28.1,301.548,14.964,99.457,-0.0057713
28.15,302.049,14.964,99.454,-0.0057682
28.2,302.549,14.963,99.451,-0.0055372
28.25,303.049,14.963,99.448,-0.0056777
28.3,303.549,14.962,99.445,-0.0059491
28.35,304.049,14.962,99.443,-0.0058608
28.4,304.549,14.961,99.44,-0.0060440
28.45,305.049,14.961,99.437,-0.0061300
28.5,305.549,14.961,99.434,-0.0058150
28.55,306.049,14.96,99.431,-0.0058554
28.6,306.549,14.96,99.428,-0.0058086
28.65,307.049,14.959,99.425,-0.0057608
28.69,307.55,14.959,99.422,-0.0057078
28.74,308.05,14.958,99.419,-0.0063563
28.79,308.55,14.958,99.416,-0.0063680
28.84,309.05,14.957,99.413,-0.0063233
28.89,309.55,14.957,99.41,-0.0063256
28.95,310.05,14.956,99.406,-0.0064185
29,310.55,14.956,99.403,-0.0061927
29.05,311.05,14.956,99.4,-0.0064220
29.1,311.55,14.955,99.397,-0.0063303
29.15,312.05,14.955,99.394,-0.0061927
29.2,312.55,14.954,99.391,-0.0063738
29.25,313.051,14.954,99.387,-0.0064596
29.3,313.551,14.953,99.384,-0.0066428
29.35,314.051,14.953,99.381,-0.0065934
29.4,314.551,14.952,99.377,-0.0070017
29.45,315.051,14.952,99.374,-0.0065018
29.5,315.551,14.951,99.371,-0.0069991
29.55,316.051,14.951,99.367,-0.0069139
29.6,316.551,14.95,99.364,-0.0069635
29.65,317.051,14.949,99.36,-0.0071023
29.7,317.551,14.949,99.356,-0.0071952
29.75,318.051,14.948,99.353,-0.0075133
29.8,318.552,14.948,99.349,-0.0072802
29.85,319.052,14.947,99.346,-0.0072344
29.9,319.552,14.947,99.342,-0.0067766
29.95,320.052,14.946,99.338,-0.0069571
30,320.552,14.946,99.335,-0.0072344
30.05,321.052,14.945,99.331,-0.0073300
30.1,321.552,14.945,99.327,-0.0072802
30.15,322.052,14.944,99.324,-0.0077381
30.2,322.552,14.943,99.32,-0.0080201
30.25,323.052,14.943,99.316,-0.0079256
30.3,323.552,14.942,99.312,-0.0076993
30.35,324.053,14.942,99.308,-0.0078827
30.4,324.553,14.941,99.304,-0.0080202
30.45,325.053,14.94,99.3,-0.0080660
30.5,325.553,14.94,99.296,-0.0082065
30.55,326.053,14.939,99.292,-0.0082463
30.6,326.553,14.939,99.288,-0.0081088
30.65,327.053,14.938,99.284,-0.0079168
30.7,327.553,14.937,99.28,-0.0084599
30.75,328.053,14.937,99.276,-0.0085544
30.8,328.553,14.936,99.271,-0.0086917
30.85,329.053,14.935,99.267,-0.0086538
30.9,329.553,14.935,99.263,-0.0087012
30.95,330.054,14.934,99.258,-0.0089694
31,330.554,14.933,99.254,-0.0091491
31.05,331.054,14.933,99.249,-0.0091899
31.1,331.554,14.932,99.244,-0.0091915
31.15,332.054,14.931,99.24,-0.0093898
31.2,332.554,14.931,99.235,-0.0091201
31.25,333.054,14.93,99.231,-0.0093458
31.3,333.554,14.929,99.226,-0.0095290
31.35,334.054,14.929,99.221,-0.0093933
31.4,334.554,14.928,99.216,-0.0096189
31.45,335.054,14.927,99.211,-0.0098955
31.5,335.555,14.926,99.206,-0.0098443
31.55,336.055,14.926,99.202,-0.0098497
31.6,336.555,14.925,99.197,-0.0099945
31.65,337.055,14.924,99.192,-0.0102715
31.7,337.555,14.923,99.187,-0.0102696
31.75,338.055,14.923,99.182,-0.0104587
31.8,338.555,14.922,99.176,-0.0099541
31.85,339.055,14.921,99.171,-0.0101283
31.9,339.555,14.92,99.166,-0.0103079
31.95,340.055,14.92,99.161,-0.0104338
32,340.555,14.919,99.156,-0.0104434
32.05,341.056,14.918,99.151,-0.0105215
32.1,341.556,14.917,99.145,-0.0102984
32.15,342.056,14.916,99.14,-0.0106072
32.2,342.556,14.916,99.135,-0.0109549
32.25,343.056,14.915,99.13,-0.0106393
32.3,343.556,14.914,99.124,-0.0107345
32.35,344.056,14.913,99.119,-0.0108835
32.4,344.556,14.912,99.113,-0.0109352
32.45,345.056,14.911,99.108,-0.0114927
32.5,345.556,14.911,99.102,-0.0113095
32.55,346.056,14.91,99.096,-0.0114511
32.6,346.557,14.909,99.091,-0.0113637
32.65,347.057,14.908,99.085,-0.0113553
32.7,347.557,14.907,99.079,-0.0116758
32.75,348.057,14.906,99.073,-0.0118132
32.8,348.557,14.905,99.067,-0.0118547
32.85,349.057,14.904,99.061,-0.0122253
32.9,349.557,14.904,99.055,-0.0122711
32.95,350.057,14.903,99.049,-0.0125115
33,350.557,14.902,99.043,-0.0127911
33.05,351.057,14.901,99.036,-0.0126077
33.1,351.557,14.9,99.03,-0.0129287
33.15,352.058,14.899,99.024,-0.0127864
33.2,352.558,14.898,99.017,-0.0129168
33.25,353.058,14.897,99.011,-0.0129121
33.3,353.558,14.896,99.004,-0.0128088
33.35,354.058,14.895,98.997,-0.0130832
33.4,354.558,14.894,98.991,-0.0137695
33.45,355.058,14.893,98.984,-0.0136780
33.5,355.558,14.892,98.977,-0.0134876
33.55,356.058,14.891,98.97,-0.0137976
33.6,356.558,14.89,98.963,-0.0139703
33.65,357.058,14.889,98.957,-0.0135730
33.7,357.558,14.888,98.95,-0.0140645
33.75,358.059,14.887,98.943,-0.0140922
33.8,358.559,14.886,98.935,-0.0144503
33.85,359.059,14.884,98.928,-0.0143132
33.9,359.559,14.883,98.921,-0.0144829
33.95,360.059,14.882,98.914,-0.0147166
34,360.559,14.881,98.906,-0.0144151
34.05,361.059,14.88,98.899,-0.0145929
34.1,361.559,14.879,98.891,-0.0147382
34.15,362.059,14.878,98.884,-0.0153846
34.2,362.559,14.877,98.876,-0.0155621
34.25,363.059,14.876,98.869,-0.0153331
34.3,363.56,14.874,98.861,-0.0153501
34.35,364.06,14.873,98.853,-0.0154446
34.4,364.56,14.872,98.846,-0.0154905
34.45,365.06,14.871,98.838,-0.0156221
34.5,365.56,14.87,98.83,-0.0155967
34.55,366.06,14.869,98.822,-0.0154953
34.6,366.56,14.867,98.814,-0.0157691
34.65,367.06,14.866,98.806,-0.0160633
34.7,367.56,14.865,98.798,-0.0163182
34.75,368.06,14.864,98.79,-0.0165599
34.8,368.56,14.862,98.782,-0.0168105
34.85,369.061,14.861,98.773,-0.0167127
34.9,369.561,14.86,98.765,-0.0170664
34.95,370.061,14.859,98.756,-0.0176427
35,370.561,14.857,98.747,-0.0172764
35.05,371.061,14.856,98.739,-0.0173336
35.1,371.561,14.855,98.73,-0.0175810
35.15,372.061,14.853,98.721,-0.0179260
35.2,372.561,14.852,98.712,-0.0181777
35.25,373.061,14.851,98.703,-0.0185660
35.3,373.561,14.849,98.694,-0.0182135
35.35,374.061,14.848,98.685,-0.0186458
35.4,374.562,14.846,98.675,-0.0187431
35.45,375.062,14.845,98.665,-0.0197077
35.5,375.562,14.843,98.655,-0.0197961
35.55,376.062,14.842,98.646,-0.0199835
35.6,376.562,14.84,98.636,-0.0198238
35.65,377.062,14.839,98.626,-0.0197139
35.7,377.562,14.837,98.615,-0.0203483
35.75,378.062,14.836,98.605,-0.0208219
35.8,378.562,14.834,98.595,-0.0207115
35.85,379.062,14.833,98.584,-0.0210695
35.9,379.562,14.831,98.574,-0.0216636
35.95,380.063,14.83,98.563,-0.0222781
36,380.563,14.828,98.552,-0.0227023
36.05,381.063,14.826,98.54,-0.0231685
36.1,381.563,14.824,98.529,-0.0229853
36.15,382.063,14.823,98.517,-0.0233059
36.2,382.563,14.821,98.505,-0.0239143
36.25,383.063,14.819,98.493,-0.0241433
36.3,383.563,14.817,98.481,-0.0249221
36.35,384.063,14.815,98.469,-0.0248764
36.4,384.563,14.813,98.456,-0.0257009
36.45,385.063,14.811,98.443,-0.0262555
36.5,385.563,14.81,98.43,-0.0266581
36.55,386.064,14.808,98.417,-0.0264194
36.6,386.564,14.806,98.404,-0.0266697
36.65,387.064,14.804,98.39,-0.0273710
36.7,387.564,14.801,98.376,-0.0280678
36.75,388.064,14.799,98.362,-0.0282967
36.8,388.564,14.797,98.348,-0.0285714
36.85,389.064,14.795,98.333,-0.0288303
36.9,389.564,14.793,98.319,-0.0297161
36.95,390.064,14.791,98.304,-0.0302087
37,390.564,14.788,98.289,-0.0307692
37.05,391.064,14.786,98.273,-0.0312500
37.1,391.565,14.784,98.257,-0.0312671
37.15,392.065,14.781,98.242,-0.0322080
37.2,392.565,14.779,98.225,-0.0327239
37.25,393.065,14.776,98.209,-0.0326047
37.3,393.565,14.774,98.192,-0.0336423
37.35,394.065,14.771,98.175,-0.0340367
37.4,394.565,14.769,98.158,-0.0340513
37.45,395.065,14.766,98.141,-0.0345428
37.5,395.565,14.763,98.124,-0.0349945
37.55,396.065,14.761,98.106,-0.0354720
37.6,396.565,14.758,98.088,-0.0360608
37.65,397.066,14.755,98.07,-0.0364203
37.7,397.566,14.753,98.052,-0.0368469
37.75,398.066,14.75,98.034,-0.0374977
37.8,398.566,14.747,98.015,-0.0381487
37.85,399.066,14.744,97.995,-0.0387994
37.9,399.566,14.741,97.976,-0.0395822
37.95,400.066,14.738,97.956,-0.0398863
38,400.566,14.735,97.936,-0.0409108
38.05,401.066,14.732,97.915,-0.0415828
38.1,401.566,14.729,97.894,-0.0424822
38.15,402.066,14.726,97.873,-0.0435041
38.2,402.567,14.722,97.851,-0.0435558
38.25,403.067,14.719,97.829,-0.0441956
38.3,403.567,14.716,97.807,-0.0445451
38.35,404.067,14.712,97.784,-0.0453839
38.4,404.567,14.709,97.762,-0.0462385
38.45,405.067,14.705,97.738,-0.0464489
38.5,405.567,14.702,97.715,-0.0479872
38.55,406.067,14.698,97.691,-0.0489021
38.6,406.567,14.695,97.666,-0.0502285
38.65,407.067,14.691,97.64,-0.0518299
38.7,407.567,14.687,97.614,-0.0532344
38.75,408.068,14.683,97.587,-0.0545271
38.8,408.568,14.679,97.559,-0.0561721
38.85,409.068,14.674,97.531,-0.0573432
38.9,409.568,14.67,97.502,-0.0584083
38.95,410.068,14.665,97.472,-0.0598483
39,410.568,14.661,97.442,-0.0613803
39.05,411.068,14.656,97.411,-0.0630495
39.1,411.568,14.651,97.379,-0.0645826
39.15,412.068,14.647,97.347,-0.0659265
39.2,412.568,14.641,97.313,-0.0678376
39.25,413.068,14.636,97.279,-0.0693710
39.3,413.568,14.631,97.243,-0.0740876
39.35,414.069,14.625,97.206,-0.0745430
39.4,414.569,14.619,97.167,-0.0822508
39.45,415.069,14.613,97.124,-0.0864028
39.5,415.569,14.606,97.078,-0.0946950
39.55,416.069,14.599,97.029,-0.0947802
39.6,416.569,14.591,96.978,-0.1044410
39.65,417.069,14.583,96.925,-0.1054430
39.7,417.569,14.575,96.87,-0.1136070
39.75,418.069,14.566,96.812,-0.1171930
39.8,418.569,14.557,96.754,-0.1220760
39.85,419.069,14.548,96.691,-0.1358650
39.9,419.57,14.538,96.627,-0.1237620
39.95,420.07,14.529,96.562,-0.1255950
40,420.57,14.518,96.493,-0.1327730
40.05,421.07,14.508,96.423,-0.1415210
40.1,421.57,14.497,96.353,-0.1351830
40.15,422.07,14.486,96.277,-0.1817580
40.2,422.57,14.474,96.199,-0.1921360
40.25,423.07,14.461,96.112,-0.1561460
40.3,423.57,14.449,96.031,-0.1655470
40.35,424.07,14.436,95.946,-0.1672940
40.4,424.57,14.422,95.857,-0.1790040
40.45,425.071,14.409,95.765,-0.1891350
40.5,425.571,14.394,95.671,-0.1909370
40.55,426.071,14.38,95.577,-0.1940690
40.6,426.571,14.365,95.475,-0.2113450
40.65,427.071,14.349,95.37,-0.2199820
40.7,427.571,14.333,95.261,-0.2226730
40.75,428.071,14.316,95.152,-0.2242100
40.8,428.571,14.299,95.038,-0.2266170
40.85,429.071,14.281,94.918,-0.2477610
40.9,429.571,14.262,94.792,-0.2542930
40.95,430.071,14.242,94.659,-0.2688520
41,430.572,14.221,94.52,-0.2865370
41.05,431.072,14.2,94.376,-0.2938050
41.1,431.572,14.177,94.229,-0.2948090
41.15,432.072,14.155,94.08,-0.3066510
41.2,432.572,14.132,93.929,-0.3070640
41.25,433.072,14.109,93.775,-0.3095090
41.3,433.572,14.086,93.618,-0.3252290
41.35,434.072,14.061,93.454,-0.3441790
41.4,434.572,14.035,93.284,-0.3414780
41.45,435.072,14.009,93.111,-0.3507300
41.5,435.572,13.982,92.933,-0.3603560
41.55,436.073,13.954,92.745,-0.3739710
41.6,436.573,13.926,92.555,-0.3780880
41.65,437.073,13.896,92.358,-0.3970300
41.7,437.573,13.865,92.154,-0.4086080
41.75,438.073,13.833,91.942,-0.4263370
41.8,438.573,13.8,91.72,-0.4514940
41.85,439.073,13.765,91.486,-0.4648330
41.9,439.573,13.729,91.246,-0.4823030
41.95,440.073,13.691,90.999,-0.4997720
42,440.573,13.654,90.748,-0.5102110
42.05,441.073,13.615,90.488,-0.5377610
42.1,441.573,13.573,90.211,-0.5725360
42.15,442.074,13.529,89.919,-0.5921670
42.2,442.574,13.483,89.615,-0.6304350
42.25,443.074,13.436,89.302,-0.6176210
42.3,443.574,13.389,88.989,-0.6747000
42.35,444.074,13.339,88.655,-0.6888280
42.4,444.574,13.286,88.306,-0.7276790
42.45,445.074,13.231,87.935,-0.7789170
42.5,445.574,13.17,87.532,-0.8420610
42.55,446.074,13.107,87.115,-0.8397680
42.6,446.574,13.042,86.684,-0.8513810
42.65,447.074,12.976,86.243,-0.8803570
42.7,447.575,12.908,85.789,-0.9140440
42.75,448.075,12.837,85.321,-0.9470560
42.8,448.575,12.763,84.827,-0.9744400
42.85,449.075,12.685,84.312,-1.04231
42.9,449.575,12.604,83.768,-1.08205
42.95,450.075,12.52,83.211,-1.14339
43,450.575,12.431,82.619,-1.19808
43.05,451.075,12.339,82.007,-1.25936
43.1,451.575,12.241,81.361,-1.3611
43.15,452.075,12.141,80.693,-1.38356
43.2,452.575,12.036,79.995,-1.49977
43.25,453.076,11.925,79.255,-1.47345
43.3,453.576,11.812,78.51,-1.53114
43.35,454.076,11.699,77.754,-1.53195
43.4,454.576,11.58,76.968,-1.60151
43.45,455.076,11.461,76.172,-1.69118
43.5,455.576,11.332,75.318,-1.68505
43.55,456.076,11.198,74.426,-1.88643
43.6,456.576,11.054,73.472,-1.96783
43.65,457.076,10.901,72.455,-1.98751
43.7,457.576,10.75,71.451,-1.99619
43.75,458.076,10.596,70.428,-2.07981
43.8,458.577,10.434,69.349,-2.19379
43.85,459.077,10.27,68.259,-2.18099
43.9,459.577,10.101,67.135,-2.33339
43.95,460.077,9.921,65.94,-2.3867
44,460.577,9.742,64.75,-2.48636
44.05,461.077,9.558,63.528,-2.46113
44.1,461.577,9.367,62.254,-2.65128
44.15,462.077,9.172,60.958,-2.62843
44.2,462.577,8.968,59.602,-2.64755
44.25,463.077,8.762,58.238,-2.75715
44.3,463.577,8.552,56.838,-2.8247
44.35,464.078,8.335,55.4,-2.87489
44.4,464.578,8.113,53.921,-3.06556
44.45,465.078,7.885,52.405,-3.09385
44.5,465.578,7.651,50.852,-3.11567
44.55,466.078,7.412,49.26,-3.15092
44.6,466.578,7.168,47.638,-3.27402
44.65,467.078,6.921,45.998,-3.34745
44.7,467.578,6.67,44.329,-3.32927
44.75,468.078,6.414,42.629,-3.38169
44.8,468.578,6.156,40.915,-3.44493
44.85,469.078,5.893,39.169,-3.46334
44.9,469.578,5.63,37.421,-3.51441
44.95,470.079,5.366,35.667,-3.49524
45,470.579,5.102,33.908,-3.5497
45.05,471.079,4.836,32.145,-3.52343
45.1,471.579,4.572,30.384,-3.48448
45.15,472.079,4.308,28.636,-3.49028
45.2,472.579,4.047,26.896,-3.41801
45.25,473.079,3.787,25.168,-3.42558
45.3,473.579,3.539,23.524,-3.3823
45.35,474.079,3.29,21.864,-3.31385
45.4,474.579,3.042,20.221,-3.21067
45.45,475.079,2.805,18.644,-3.1414
45.5,475.58,2.57,17.08,-2.93378
45.55,476.08,2.35,15.621,-2.86877
45.6,476.58,2.135,14.187,-2.77302
45.65,477.08,1.93,12.83,-2.66462
45.7,477.58,1.746,11.606,-2.37209
45.75,478.08,1.568,10.421,-2.24867
45.8,478.58,1.403,9.322,-2.13526
45.85,479.08,1.249,8.302,-1.89842
45.9,479.58,1.117,7.427,-1.65689
45.95,480.08,0.9940000,6.607,-1.54097
46,480.58,0.8810000,5.852,-1.42715
46.05,481.081,0.7820000,5.197,-1.26583
46.1,481.581,0.6910000,4.593,-1.1552
46.15,482.081,0.6100000,4.056,-1.00531
46.2,482.581,0.5390000,3.58,-0.9111750
46.24,483.081,0.4780000,3.177,-0.7475350
46.29,483.581,0.4240000,2.817,-0.6666640
46.34,484.081,0.3770000,2.507,-0.5678020
46.39,484.581,0.3370000,2.243,-0.4794210
46.44,485.081,0.3040000,2.021,-0.4112070
46.49,485.581,0.2760000,1.835,-0.3392390
46.54,486.081,0.2530000,1.683,-0.2782480
46.59,486.582,0.2350000,1.564,-0.2062840
46.64,487.082,0.2220000,1.474,-0.1532210
46.69,487.582,0.2120000,1.409,-0.1109440
46.74,488.082,0.2050000,1.364,-0.0717836
46.8,488.582,0.2010000,1.336,-0.0392973
46.85,489.082,0.1980000,1.316,-0.0408797
46.9,489.582,0.1950000,1.296,-0.0386529
46.95,490.082,0.1920000,1.278,-0.0345999
47,490.582,0.1900000,1.262,-0.0296839
47.05,491.082,0.1880000,1.248,-0.0248414
47.1,491.582,0.1860000,1.237,-0.0202000
47.15,492.083,0.1850000,1.228,-0.0163449
47.2,492.583,0.1840000,1.221,-0.0129545
47.25,493.083,0.1830000,1.215,-0.0101907
47.3,493.583,0.1820000,1.21,-0.0085419
47.35,494.083,0.1820000,1.206,-0.0068217
47.4,494.583,0.1810000,1.203,-0.0058274
47.45,495.083,0.1810000,1.201,-0.0046100
47.5,495.583,0.1800000,1.199,-0.0038367
47.55,496.083,0.1800000,1.197,-0.0031751
47.6,496.583,0.1800000,1.196,-0.0026675
47.65,497.083,0.1800000,1.195,-0.0018695
47.7,497.583,0.1800000,1.194,-0.0018628
47.75,498.084,0.1790000,1.193,-0.0016727
47.8,498.584,0.1790000,1.192,-0.0013749
47.85,499.084,0.1790000,1.191,-0.0012612
47.9,499.584,0.1790000,1.191,-0.0011755
47.95,500.084,0.1790000,1.19,-0.0010438
48,500.584,0.1790000,1.19,-0.0008269
48.05,501.084,0.1790000,1.189,-0.0008706
48.1,501.584,0.1790000,1.189,-0.0008882
48.15,502.084,0.1790000,1.188,-0.0007325
48.2,502.584,0.1790000,1.188,-0.0009176
48.25,503.084,0.1790000,1.188,-0.0009592
48.3,503.585,0.1790000,1.187,-0.0005123
48.35,504.085,0.1790000,1.187,-0.0004767
48.4,504.585,0.1790000,1.187,-0.0003367
48.45,505.085,0.1780000,1.186,-0.0006622
48.5,505.585,0.1780000,1.186,-0.0008734
48.55,506.085,0.1780000,1.186,-0.0008939
48.6,506.585,0.1780000,1.185,-0.0007315
48.65,507.085,0.1780000,1.185,-0.0008389
48.7,507.585,0.1780000,1.185,-0.0007605
48.75,508.085,0.1780000,1.184,-0.0007648
48.8,508.585,0.1780000,1.184,-0.0005872
48.85,509.086,0.1780000,1.184,-0.0005514
48.9,509.586,0.1780000,1.183,-0.0006010
48.95,510.086,0.1780000,1.183,-0.0006533
49,510.586,0.1780000,1.183,-0.0007887
49.05,511.086,0.1780000,1.182,-0.0005977
49.1,511.586,0.1780000,1.182,-0.0007395
49.15,512.086,0.1780000,1.182,-0.0008991
49.2,512.586,0.1780000,1.181,-0.0004747
49.25,513.086,0.1780000,1.181,-0.0003896
49.3,513.586,0.1780000,1.181,-0.0003654
49.35,514.086,0.1780000,1.181,-0.0005258
49.4,514.587,0.1780000,1.18,-0.0007927
49.45,515.087,0.1780000,1.18,-0.0006367
49.5,515.587,0.1770000,1.179,-0.0010546
49.55,516.087,0.1770000,1.179,-0.0007512
49.6,516.587,0.1770000,1.179,-0.0005229
49.65,517.087,0.1770000,1.178,-0.0008757
49.7,517.587,0.1770000,1.178,-0.0007100
49.75,518.087,0.1770000,1.177,-0.0006819
49.8,518.587,0.1770000,1.177,-0.0007911
49.85,519.087,0.1770000,1.177,-0.0008564
49.9,519.587,0.1770000,1.176,-0.0010405
49.95,520.088,0.1770000,1.176,-0.0008628
50,520.588,0.1770000,1.175,-0.0010315
50.05,521.088,0.1770000,1.175,-0.0006499
50.1,521.588,0.1770000,1.175,-0.0008755
50.15,522.088,0.1770000,1.174,-0.0008385
50.2,522.588,0.1770000,1.174,-0.0009437
50.25,523.088,0.1770000,1.173,-0.0006797
50.3,523.588,0.1760000,1.173,-0.0008623
50.35,524.088,0.1760000,1.172,-0.0008859
50.4,524.588,0.1760000,1.172,-0.0010023
50.45,525.088,0.1760000,1.171,-0.0014022
50.5,525.588,0.1760000,1.171,-0.0006211
50.55,526.089,0.1760000,1.17,-0.0010869
50.6,526.589,0.1760000,1.17,-0.0011711
50.65,527.089,0.1760000,1.169,-0.0012940
50.7,527.589,0.1760000,1.169,-0.0012026
50.75,528.089,0.1760000,1.168,-0.0014157
50.8,528.589,0.1760000,1.167,-0.0013150
50.85,529.089,0.1760000,1.167,-0.0012939
50.9,529.589,0.1750000,1.166,-0.0015067
50.95,530.089,0.1750000,1.165,-0.0014525
51,530.589,0.1750000,1.165,-0.0014109
51.05,531.089,0.1750000,1.164,-0.0017019
51.1,531.59,0.1750000,1.163,-0.0016239
51.15,532.09,0.1750000,1.162,-0.0017419
51.2,532.59,0.1750000,1.161,-0.0017096
51.25,533.09,0.1750000,1.16,-0.0018408
51.3,533.59,0.1740000,1.159,-0.0016612
51.35,534.09,0.1740000,1.158,-0.0015432
51.4,534.59,0.1740000,1.157,-0.0017859
51.45,535.09,0.1740000,1.157,-0.0018195
51.5,535.59,0.1740000,1.156,-0.0016115
51.55,536.09,0.1740000,1.155,-0.0016332
51.6,536.59,0.1740000,1.154,-0.0018211
51.65,537.091,0.1730000,1.153,-0.0018588
51.7,537.591,0.1730000,1.152,-0.0013175
51.75,538.091,0.1730000,1.151,-0.0014336
51.8,538.591,0.1730000,1.151,-0.0017914
51.85,539.091,0.1730000,1.15,-0.0012404
51.9,539.591,0.1730000,1.149,-0.0015274
51.95,540.091,0.1730000,1.149,-0.0016927
52,540.591,0.1730000,1.148,-0.0018458
52.05,541.091,0.1730000,1.147,-0.0013714
52.1,541.591,0.1720000,1.146,-0.0011117
52.15,542.091,0.1720000,1.146,-0.0014043
52.2,542.592,0.1720000,1.145,-0.0012875
52.25,543.092,0.1720000,1.144,-0.0010926
52.3,543.592,0.1720000,1.144,-0.0013052
52.35,544.092,0.1720000,1.143,-0.0012659
52.4,544.592,0.1720000,1.142,-0.0016223
52.45,545.092,0.1720000,1.142,-0.0015103
52.5,545.592,0.1720000,1.141,-0.0016061
52.55,546.092,0.1720000,1.14,-0.0015890
52.6,546.592,0.1710000,1.139,-0.0012778
52.65,547.092,0.1710000,1.139,-0.0016877
52.7,547.592,0.1710000,1.138,-0.0013557
52.75,548.093,0.1710000,1.137,-0.0013250
52.8,548.593,0.1710000,1.137,-0.0013472
52.85,549.093,0.1710000,1.136,-0.0011039
52.9,549.593,0.1710000,1.135,-0.0014500
52.95,550.093,0.1710000,1.135,-0.0013159
53,550.593,0.1710000,1.134,-0.0013329
53.05,551.093,0.1710000,1.133,-0.0016545
53.1,551.593,0.1700000,1.132,-0.0015277
53.15,552.093,0.1700000,1.132,-0.0017120
53.2,552.593,0.1700000,1.131,-0.0015930
53.25,553.093,0.1700000,1.13,-0.0016030
53.3,553.593,0.1700000,1.129,-0.0014666
53.35,554.094,0.1700000,1.129,-0.0013843
53.4,554.594,0.1700000,1.128,-0.0014050
53.45,555.094,0.1700000,1.127,-0.0015456
53.5,555.594,0.1690000,1.126,-0.0011268
53.55,556.094,0.1690000,1.126,-0.0014659
53.6,556.594,0.1690000,1.125,-0.0015636
53.65,557.094,0.1690000,1.124,-0.0015709
53.7,557.594,0.1690000,1.123,-0.0015893
53.75,558.094,0.1690000,1.122,-0.0016290
53.8,558.594,0.1690000,1.122,-0.0014344
53.85,559.094,0.1690000,1.121,-0.0014412
53.9,559.595,0.1690000,1.12,-0.0014083
53.95,560.095,0.1680000,1.119,-0.0015896
54,560.595,0.1680000,1.119,-0.0013995
54.05,561.095,0.1680000,1.118,-0.0015611
54.1,561.595,0.1680000,1.117,-0.0014979
54.15,562.095,0.1680000,1.116,-0.0015715
54.2,562.595,0.1680000,1.116,-0.0015845
54.25,563.095,0.1680000,1.115,-0.0015665
54.3,563.595,0.1680000,1.114,-0.0016065
54.35,564.095,0.1670000,1.113,-0.0014498
54.4,564.595,0.1670000,1.112,-0.0017745
54.45,565.096,0.1670000,1.111,-0.0017787
54.5,565.596,0.1670000,1.11,-0.0019631
54.55,566.096,0.1670000,1.109,-0.0020468
54.6,566.596,0.1670000,1.108,-0.0020553
54.65,567.096,0.1670000,1.107,-0.0019589
54.7,567.596,0.1660000,1.106,-0.0021690
54.75,568.096,0.1660000,1.105,-0.0021363
54.8,568.596,0.1660000,1.104,-0.0026335
54.84,569.096,0.1660000,1.103,-0.0022268
54.89,569.596,0.1660000,1.102,-0.0020948
54.94,570.096,0.1660000,1.101,-0.0027164
54.99,570.597,0.1650000,1.099,-0.0025544
55.04,571.097,0.1650000,1.098,-0.0023213
55.09,571.597,0.1650000,1.097,-0.0021883
55.14,572.097,0.1650000,1.096,-0.0023548
55.19,572.597,0.1650000,1.094,-0.0023362
55.24,573.097,0.1640000,1.093,-0.0027324
55.29,573.597,0.1640000,1.092,-0.0027344
55.34,574.097,0.1640000,1.09,-0.0032799
55.39,574.597,0.1640000,1.089,-0.0034341
55.44,575.097,0.1640000,1.087,-0.0031852
55.49,575.597,0.1630000,1.085,-0.0029669
55.54,576.098,0.1630000,1.084,-0.0032459
55.59,576.598,0.1630000,1.082,-0.0031691
55.64,577.098,0.1630000,1.081,-0.0034579
55.69,577.598,0.1620000,1.079,-0.0031941
55.74,578.098,0.1620000,1.077,-0.0031055
55.79,578.598,0.1620000,1.076,-0.0033424
55.84,579.098,0.1620000,1.074,-0.0034834
55.89,579.598,0.1610000,1.072,-0.0033732
55.94,580.098,0.1610000,1.07,-0.0036404
55.99,580.598,0.1610000,1.069,-0.0035983
56.04,581.098,0.1610000,1.067,-0.0037034
56.09,581.598,0.1600000,1.065,-0.0036862
56.14,582.099,0.1600000,1.063,-0.0036889
56.19,582.599,0.1600000,1.061,-0.0039277
56.24,583.099,0.1590000,1.059,-0.0039864
56.29,583.599,0.1590000,1.057,-0.0039499
56.34,584.099,0.1590000,1.055,-0.0039091
56.39,584.599,0.1590000,1.054,-0.0034874
56.44,585.099,0.1580000,1.052,-0.0036167
56.49,585.599,0.1580000,1.05,-0.0035682
56.54,586.099,0.1580000,1.048,-0.0035761
56.59,586.599,0.1570000,1.046,-0.0035974
56.64,587.099,0.1570000,1.044,-0.0032393
56.69,587.6,0.1570000,1.043,-0.0034351
56.74,588.1,0.1570000,1.041,-0.0033375
56.79,588.6,0.1560000,1.039,-0.0035032
56.84,589.1,0.1560000,1.038,-0.0032943
56.89,589.6,0.1560000,1.036,-0.0032293
56.94,590,0.1560000,1.035,-0.0030635