File: R/rHDPE_App/app/www/Output/TGA/Condensed_Data/Resin16_1__1.csv
0.7400000,30,10.843,100.018,0.0048514
0.8100000,30.5001,10.844,100.02,0.0137888
0.8800000,31.0002,10.844,100.023,0.0026535
0.9400000,31.5003,10.844,100.026,-0.0004033
1,32.0004,10.845,100.028,0.0015801
1.07,32.5004,10.845,100.03,0.0006644
1.13,33.0005,10.845,100.033,0.0003258
1.18,33.5006,10.845,100.035,0.0009649
1.24,34.0007,10.845,100.036,0.0081920
1.3,34.5008,10.846,100.038,0.0032368
1.36,35.0009,10.846,100.04,0.0011352
1.41,35.501,10.846,100.042,0.0057307
1.47,36.0011,10.846,100.043,-0.0007615
1.52,36.5012,10.846,100.044,0.0053911
1.58,37.0013,10.846,100.046,0.0002003
1.63,37.5013,10.847,100.047,0.0046811
1.69,38.0014,10.847,100.048,0.0010404
1.74,38.5015,10.847,100.049,0.0052831
1.79,39.0016,10.847,100.051,0.0019644
1.85,39.5017,10.847,100.052,0.0010269
1.9,40.0018,10.847,100.053,0.0040483
1.96,40.5019,10.847,100.054,0.0009714
2.01,41.002,10.847,100.055,0.0007281
2.06,41.5021,10.848,100.056,0.0029524
2.11,42.0021,10.848,100.057,0.0014474
2.17,42.5022,10.848,100.058,0.0007227
2.22,43.0023,10.848,100.059,0.0024534
2.27,43.5024,10.848,100.06,0.0016786
2.32,44.0025,10.848,100.06,0.0006226
2.38,44.5026,10.848,100.061,0.0024395
2.43,45.0027,10.848,100.062,0.0032501
2.48,45.5028,10.848,100.063,0.0023378
2.53,46.0029,10.848,100.064,0.0009520
2.59,46.5029,10.848,100.065,0.0023310
2.64,47.003,10.849,100.066,0.0024230
2.69,47.5031,10.849,100.066,0.0019460
2.74,48.0032,10.849,100.067,0.0015170
2.79,48.5033,10.849,100.068,0.0012779
2.84,49.0034,10.849,100.069,0.0017507
2.89,49.5035,10.849,100.07,0.0020797
2.95,50.0036,10.849,100.071,0.0013697
3,50.5037,10.849,100.072,0.0010858
3.05,51.0038,10.849,100.072,0.0014632
3.1,51.5038,10.849,100.073,0.0020252
3.15,52.0039,10.85,100.074,0.0015042
3.21,52.504,10.85,100.075,0.0014556
3.26,53.0041,10.85,100.076,0.0010789
3.31,53.5042,10.85,100.077,0.0020616
3.36,54.0043,10.85,100.078,0.0022450
3.41,54.5044,10.85,100.078,0.0025256
3.46,55.0045,10.85,100.079,0.0014932
3.51,55.5046,10.85,100.08,0.0016772
3.56,56.0046,10.85,100.081,0.0015370
3.61,56.5047,10.85,100.082,0.0012573
3.66,57.0048,10.85,100.083,0.0015341
3.71,57.5049,10.851,100.084,0.0020898
3.76,58.005,10.851,100.085,0.0016239
3.81,58.5051,10.851,100.086,0.0016237
3.87,59.0052,10.851,100.086,0.0010665
3.92,59.5053,10.851,100.087,0.0021321
3.97,60.0054,10.851,100.088,0.0012023
4.02,60.5054,10.851,100.089,0.0016649
4.07,61.0055,10.851,100.09,0.0017567
4.12,61.5056,10.851,100.09,0.0016640
4.17,62.0057,10.851,100.091,0.0016632
4.22,62.5058,10.851,100.092,0.0014319
4.27,63.0059,10.852,100.093,0.0015703
4.32,63.506,10.852,100.093,0.0010150
4.37,64.0061,10.852,100.094,0.0017989
4.42,64.5062,10.852,100.095,0.0018448
4.47,65.0063,10.852,100.096,0.0012447
4.52,65.5063,10.852,100.096,0.0019820
4.57,66.0064,10.852,100.097,0.0018439
4.62,66.5065,10.852,100.098,0.0014745
4.67,67.0066,10.852,100.099,0.0008295
4.72,67.5067,10.852,100.099,0.0013361
4.77,68.0068,10.852,100.1,0.0014738
4.83,68.5069,10.852,100.101,0.0009664
4.88,69.007,10.852,100.101,0.0010123
4.93,69.5071,10.853,100.102,0.0018392
4.98,70.0071,10.853,100.103,0.0014254
5.03,70.5072,10.853,100.103,0.0013328
5.08,71.0073,10.853,100.104,0.0017924
5.13,71.5074,10.853,100.105,0.0017015
5.18,72.0075,10.853,100.105,0.0007811
5.23,72.5076,10.853,100.106,0.0012863
5.28,73.0077,10.853,100.107,0.0016990
5.33,73.5078,10.853,100.108,0.0009642
5.38,74.0079,10.853,100.108,0.0013311
5.43,74.5079,10.853,100.109,0.0019275
5.48,75.008,10.853,100.109,0.0012860
5.53,75.5081,10.853,100.11,0.0010571
5.58,76.0082,10.853,100.111,0.0021604
5.63,76.5083,10.854,100.112,0.0015619
5.68,77.0084,10.854,100.112,0.0016996
5.73,77.5085,10.854,100.113,0.0016991
5.78,78.0086,10.854,100.114,0.0016992
5.83,78.5087,10.854,100.115,0.0011940
5.88,79.0088,10.854,100.115,0.0011481
5.93,79.5088,10.854,100.116,0.0016518
5.98,80.0089,10.854,100.116,0.0010542
6.03,80.509,10.854,100.117,0.0009169
6.08,81.0091,10.854,100.117,0.0014666
6.13,81.5092,10.854,100.118,0.0012369
6.18,82.0093,10.854,100.118,0.0010539
6.23,82.5094,10.854,100.119,0.0011914
6.28,83.0095,10.854,100.12,0.0017865
6.33,83.5096,10.855,100.12,0.0009618
6.38,84.0096,10.855,100.121,0.0012826
6.43,84.5097,10.855,100.121,0.0011455
6.48,85.0098,10.855,100.122,0.0017409
6.53,85.5099,10.855,100.123,0.0016051
6.58,86.01,10.855,100.123,0.0012437
6.63,86.5101,10.855,100.124,0.0012082
6.68,87.0102,10.855,100.124,0.0005124
6.73,87.5103,10.855,100.125,0.0010209
6.78,88.0104,10.855,100.126,0.0020670
6.84,88.5104,10.855,100.126,0.0013125
6.89,89.0105,10.855,100.127,0.0011186
6.94,89.5106,10.855,100.127,0.0012053
6.99,90.0107,10.855,100.128,0.0009677
7.04,90.5108,10.855,100.129,0.0010439
7.09,91.0109,10.855,100.129,0.0007254
7.14,91.511,10.856,100.13,0.0008156
7.19,92.0111,10.856,100.13,0.0008610
7.24,92.5112,10.856,100.13,0.0009078
7.28,93.0113,10.856,100.131,0.0011810
7.33,93.5113,10.856,100.131,0.0006819
7.38,94.0114,10.856,100.132,0.0008191
7.43,94.5115,10.856,100.132,0.0010900
7.48,95.0116,10.856,100.133,0.0009544
7.53,95.5117,10.856,100.133,0.0009990
7.58,96.0118,10.856,100.133,0.0007284
7.63,96.5119,10.856,100.134,0.0012305
7.68,97.012,10.856,100.134,0.0006379
7.73,97.5121,10.856,100.135,0.0006852
7.78,98.0121,10.856,100.135,0.0005020
7.83,98.5122,10.856,100.136,0.0004110
7.88,99.0123,10.856,100.136,0.0009122
7.93,99.5124,10.856,100.136,0.0010941
7.98,100.013,10.856,100.137,0.0008570
8.03,100.513,10.856,100.137,0.0010700
8.08,101.013,10.856,100.138,0.0009437
8.13,101.513,10.856,100.138,0.0004993
8.18,102.013,10.856,100.138,0.0005489
8.23,102.513,10.856,100.138,-0.0001377
8.28,103.013,10.856,100.138,0.0005969
8.33,103.513,10.857,100.139,0.0009176
8.38,104.013,10.857,100.139,0.0004129
8.43,104.513,10.857,100.14,0.0002275
8.48,105.013,10.857,100.14,0.0003641
8.53,105.513,10.857,100.14,0.0001370
8.58,106.014,10.857,100.14,0.0004580
8.63,106.514,10.857,100.141,0.0010106
8.68,107.014,10.857,100.141,0.0011453
8.73,107.514,10.857,100.142,0.0008844
8.78,108.014,10.857,100.142,0.0001776
8.82,108.514,10.857,100.142,0.0005856
8.87,109.014,10.857,100.143,-0.0004549
8.92,109.514,10.857,100.143,0.0000000
8.97,110.014,10.857,100.143,0.0003203
9.02,110.514,10.857,100.143,-0.0002290
9.07,111.014,10.857,100.143,0.0000000
9.12,111.515,10.857,100.143,0.0003205
9.17,112.015,10.857,100.143,0.0000001
9.22,112.515,10.857,100.143,-0.0001858
9.28,113.015,10.857,100.144,0.0001391
9.33,113.515,10.857,100.144,0.0002309
9.38,114.015,10.857,100.144,0.0002294
9.43,114.515,10.857,100.144,0.0001806
9.48,115.015,10.857,100.145,0.0004089
9.53,115.515,10.857,100.145,0.0007772
9.58,116.015,10.857,100.145,0.0002750
9.63,116.515,10.857,100.145,0.0004601
9.68,117.016,10.857,100.145,-0.0002302
9.73,117.516,10.857,100.146,0.0003687
9.78,118.016,10.857,100.146,0.0002305
9.83,118.516,10.857,100.146,0.0004607
9.88,119.016,10.857,100.146,0.0002306
9.93,119.516,10.857,100.147,0.0004611
9.98,120.016,10.857,100.147,0.0003691
10.03,120.516,10.857,100.147,0.0006004
10.08,121.016,10.857,100.147,-0.0000000
10.13,121.516,10.857,100.147,0.0003242
10.18,122.016,10.857,100.148,0.0006007
10.23,122.517,10.857,100.148,0.0005527
10.28,123.017,10.858,100.148,0.0011035
10.33,123.517,10.858,100.149,0.0009671
10.38,124.017,10.858,100.149,0.0002308
10.43,124.517,10.858,100.149,0.0007867
10.48,125.017,10.858,100.149,0.0009239
10.53,125.517,10.858,100.149,0.0002308
10.58,126.017,10.858,100.149,-0.0001387
10.63,126.517,10.858,100.149,0.0001389
10.68,127.017,10.858,100.15,0.0007404
10.73,127.517,10.858,100.15,0.0000000
10.78,128.018,10.858,100.15,0.0003697
10.83,128.518,10.858,100.15,0.0009656
10.88,129.018,10.858,100.151,0.0001365
10.93,129.518,10.858,100.151,-0.0004500
10.98,130.018,10.858,100.151,0.0005768
11.03,130.518,10.858,100.151,0.0002230
11.08,131.018,10.858,100.151,0.0008551
11.13,131.518,10.858,100.151,0.0002717
11.18,132.018,10.858,100.152,0.0002272
11.23,132.518,10.858,100.152,-0.0003645
11.28,133.018,10.858,100.152,-0.0001371
11.33,133.518,10.858,100.152,0.0000000
11.38,134.019,10.858,100.152,-0.0000916
11.43,134.519,10.858,100.152,0.0005964
11.48,135.019,10.858,100.152,0.0003211
11.53,135.519,10.858,100.153,0.0005046
11.58,136.019,10.858,100.153,0.0000917
11.63,136.519,10.858,100.153,0.0000917
11.68,137.019,10.858,100.153,-0.0000459
11.73,137.519,10.858,100.153,0.0000918
11.78,138.019,10.858,100.153,-0.0000918
11.83,138.519,10.858,100.153,0.0009637
11.88,139.019,10.858,100.154,0.0005961
11.93,139.52,10.858,100.154,-0.0002291
11.98,140.02,10.858,100.154,0.0002298
12.03,140.52,10.858,100.154,0.0003221
12.08,141.02,10.858,100.154,0.0002298
12.13,141.52,10.858,100.155,0.0006901
12.18,142.02,10.858,100.155,0.0014257
12.23,142.52,10.858,100.155,0.0004144
12.28,143.02,10.858,100.156,0.0008327
12.33,143.52,10.858,100.156,0.0012911
12.38,144.02,10.858,100.157,0.0008272
12.43,144.52,10.858,100.157,0.0001852
12.48,145.021,10.858,100.157,0.0005085
12.53,145.521,10.859,100.157,0.0008858
12.59,146.021,10.859,100.158,0.0002793
12.64,146.521,10.859,100.158,0.0007466
12.69,147.021,10.859,100.158,0.0006939
12.74,147.521,10.859,100.159,0.0000000
12.79,148.021,10.859,100.159,0.0009163
12.84,148.521,10.859,100.159,0.0000459
12.89,149.021,10.859,100.16,0.0001376
12.94,149.521,10.859,100.16,-0.0002753
12.99,150.021,10.859,100.16,0.0006420
13.04,150.522,10.859,100.16,0.0002301
13.09,151.022,10.859,100.16,0.0002299
13.14,151.522,10.859,100.16,0.0002291
13.19,152.022,10.859,100.16,0.0002285
13.24,152.522,10.859,100.16,0.0003202
13.29,153.022,10.859,100.16,-0.0002752
13.34,153.522,10.859,100.16,-0.0002752
13.39,154.022,10.859,100.16,-0.0007315
13.44,154.522,10.859,100.159,-0.0011388
13.49,155.022,10.859,100.159,-0.0008632
13.54,155.522,10.859,100.158,-0.0012276
13.59,156.023,10.859,100.157,-0.0020505
13.64,156.523,10.858,100.156,-0.0019631
13.69,157.023,10.858,100.155,-0.0016435
13.74,157.523,10.858,100.154,-0.0015078
13.79,158.023,10.858,100.154,-0.0011423
13.84,158.523,10.858,100.153,-0.0018261
13.89,159.023,10.858,100.152,-0.0013225
13.94,159.523,10.858,100.151,-0.0024530
13.99,160.023,10.858,100.151,-0.0016307
14.04,160.523,10.858,100.15,-0.0010827
14.08,161.023,10.858,100.149,-0.0009808
14.13,161.523,10.858,100.149,-0.0014328
14.18,162.024,10.858,100.148,-0.0004084
14.23,162.524,10.857,100.148,-0.0011518
14.28,163.024,10.857,100.147,-0.0010286
14.33,163.524,10.857,100.147,-0.0006528
14.38,164.024,10.857,100.147,0.0000462
14.43,164.524,10.857,100.146,-0.0009563
14.48,165.024,10.857,100.146,-0.0004985
14.53,165.524,10.857,100.146,-0.0003624
14.58,166.024,10.857,100.145,-0.0008631
14.63,166.524,10.857,100.145,-0.0004105
14.68,167.024,10.857,100.145,-0.0000454
14.73,167.525,10.857,100.145,-0.0003633
14.78,168.025,10.857,100.144,-0.0005907
14.83,168.525,10.857,100.144,0.0005924
14.88,169.025,10.857,100.144,-0.0001828
14.93,169.525,10.857,100.144,-0.0008275
14.98,170.025,10.857,100.144,-0.0005995
15.03,170.525,10.857,100.144,0.0002773
15.08,171.025,10.857,100.144,-0.0000461
15.13,171.525,10.857,100.143,-0.0005531
15.18,172.025,10.857,100.143,0.0000001
15.24,172.525,10.857,100.143,-0.0004659
15.29,173.026,10.857,100.143,-0.0006008
15.34,173.526,10.857,100.143,0.0002750
15.39,174.026,10.857,100.143,0.0000456
15.44,174.526,10.857,100.142,-0.0008187
15.49,175.026,10.857,100.142,-0.0005488
15.54,175.526,10.857,100.142,-0.0000000
15.59,176.026,10.857,100.142,-0.0009214
15.64,176.526,10.857,100.142,-0.0000916
15.69,177.026,10.857,100.142,0.0001367
15.74,177.526,10.857,100.142,-0.0006817
15.79,178.026,10.857,100.142,-0.0006352
15.84,178.527,10.857,100.141,0.0000000
15.88,179.027,10.857,100.141,-0.0003632
15.93,179.527,10.857,100.141,-0.0005908
15.98,180.027,10.857,100.141,-0.0000909
16.03,180.527,10.857,100.141,-0.0000911
16.08,181.027,10.857,100.14,-0.0007296
16.13,181.527,10.857,100.14,-0.0008206
16.18,182.027,10.857,100.14,0.0000913
16.23,182.527,10.857,100.14,-0.0007757
16.28,183.027,10.857,100.14,-0.0010041
16.33,183.527,10.857,100.139,-0.0006851
16.38,184.028,10.857,100.139,-0.0008689
16.43,184.528,10.856,100.138,-0.0012332
16.48,185.028,10.856,100.138,-0.0003197
16.53,185.528,10.856,100.138,0.0002286
16.58,186.028,10.856,100.137,-0.0005950
16.63,186.528,10.856,100.137,-0.0002757
16.68,187.028,10.856,100.137,-0.0000920
16.73,187.528,10.856,100.137,-0.0003219
16.78,188.028,10.856,100.137,-0.0011940
16.83,188.528,10.856,100.136,-0.0007328
16.88,189.028,10.856,100.136,-0.0006856
16.93,189.528,10.856,100.136,-0.0007755
16.98,190.029,10.856,100.136,-0.0007774
17.03,190.529,10.856,100.136,-0.0003667
17.08,191.029,10.856,100.135,-0.0005043
17.13,191.529,10.856,100.135,-0.0009219
17.18,192.029,10.856,100.135,-0.0000920
17.23,192.529,10.856,100.135,-0.0006912
17.28,193.029,10.856,100.134,-0.0011466
17.33,193.529,10.856,100.134,-0.0006389
17.38,194.029,10.856,100.134,-0.0001826
17.43,194.529,10.856,100.134,-0.0001373
17.48,195.029,10.856,100.133,-0.0007815
17.53,195.53,10.856,100.133,0.0000463
17.58,196.03,10.856,100.133,-0.0003747
17.64,196.53,10.856,100.133,-0.0002331
17.69,197.03,10.856,100.132,-0.0001850
17.74,197.53,10.856,100.132,-0.0002728
17.79,198.03,10.856,100.132,-0.0006774
17.84,198.53,10.856,100.131,-0.0004058
17.89,199.03,10.856,100.131,0.0000000
17.94,199.53,10.856,100.131,-0.0003784
17.99,200.03,10.856,100.131,0.0000464
18.04,200.53,10.856,100.131,-0.0003201
18.09,201.031,10.856,100.131,-0.0009982
18.14,201.531,10.856,100.131,-0.0006810
18.19,202.031,10.856,100.13,-0.0005966
18.24,202.531,10.856,100.13,-0.0009644
18.29,203.031,10.856,100.13,-0.0013206
18.34,203.531,10.855,100.129,-0.0008210
18.39,204.031,10.855,100.129,0.0000000
18.44,204.531,10.855,100.128,-0.0007685
18.49,205.031,10.855,100.128,-0.0010411
18.54,205.531,10.855,100.127,-0.0003632
18.59,206.031,10.855,100.127,-0.0005378
18.63,206.532,10.855,100.127,-0.0014322
18.68,207.032,10.855,100.126,-0.0003627
18.73,207.532,10.855,100.126,-0.0004175
18.78,208.032,10.855,100.126,-0.0008388
18.84,208.532,10.855,100.125,-0.0004216
18.89,209.032,10.855,100.125,-0.0005185
18.94,209.532,10.855,100.125,-0.0004708
18.99,210.032,10.855,100.124,-0.0008820
19.04,210.532,10.855,100.124,-0.0006473
19.09,211.032,10.855,100.124,-0.0005041
19.14,211.532,10.855,100.124,-0.0011358
19.19,212.033,10.855,100.123,-0.0006376
19.24,212.533,10.855,100.123,-0.0003180
19.29,213.033,10.855,100.123,-0.0004524
19.34,213.533,10.855,100.123,-0.0003599
19.39,214.033,10.855,100.122,-0.0002262
19.44,214.533,10.855,100.122,-0.0006835
19.49,215.033,10.855,100.122,-0.0008654
19.54,215.533,10.855,100.121,-0.0010879
19.59,216.033,10.855,100.121,-0.0008115
19.63,216.533,10.855,100.121,-0.0010798
19.68,217.033,10.855,100.12,-0.0004502
19.73,217.533,10.854,100.12,0.0000000
19.78,218.034,10.854,100.12,-0.0006806
19.83,218.534,10.854,100.119,-0.0012297
19.88,219.034,10.854,100.119,-0.0003194
19.93,219.534,10.854,100.118,-0.0007782
19.98,220.034,10.854,100.118,-0.0010547
20.03,220.534,10.854,100.118,-0.0006438
20.08,221.034,10.854,100.117,-0.0004151
20.13,221.534,10.854,100.117,-0.0010155
20.18,222.034,10.854,100.116,-0.0005536
20.23,222.534,10.854,100.116,-0.0006943
20.28,223.034,10.854,100.116,-0.0006977
20.34,223.535,10.854,100.115,-0.0014801
20.39,224.035,10.854,100.115,-0.0007350
20.44,224.535,10.854,100.115,-0.0003680
20.49,225.035,10.854,100.114,-0.0009290
20.54,225.535,10.854,100.114,-0.0008284
20.59,226.035,10.854,100.114,-0.0008719
20.64,226.535,10.854,100.113,-0.0008149
20.7,227.035,10.854,100.113,-0.0004698
20.75,227.535,10.854,100.113,-0.0002784
20.8,228.035,10.854,100.112,-0.0006409
20.85,228.535,10.854,100.112,-0.0006419
20.9,229.036,10.854,100.112,-0.0007399
20.95,229.536,10.854,100.111,-0.0007366
21,230.036,10.853,100.111,-0.0005590
21.05,230.536,10.853,100.11,-0.0010158
21.1,231.036,10.853,100.11,-0.0006792
21.16,231.536,10.853,100.11,-0.0012593
21.21,232.036,10.853,100.109,-0.0005614
21.26,232.536,10.853,100.109,-0.0007506
21.31,233.036,10.853,100.109,-0.0003249
21.36,233.536,10.853,100.108,-0.0007414
21.41,234.036,10.853,100.108,-0.0009633
21.46,234.537,10.853,100.108,-0.0009475
21.51,235.037,10.853,100.107,-0.0007648
21.56,235.537,10.853,100.107,-0.0006782
21.61,236.037,10.853,100.106,-0.0012245
21.66,236.537,10.853,100.106,-0.0013421
21.71,237.037,10.853,100.105,-0.0009319
21.76,237.537,10.853,100.105,-0.0004442
21.81,238.037,10.853,100.104,-0.0004444
21.85,238.537,10.853,100.104,-0.0017865
21.9,239.037,10.853,100.104,-0.0005412
21.95,239.537,10.853,100.103,-0.0006751
22,240.038,10.853,100.103,-0.0010439
22.05,240.538,10.853,100.102,-0.0006813
22.1,241.038,10.853,100.102,-0.0006817
22.15,241.538,10.852,100.101,-0.0000450
22.2,242.038,10.852,100.101,-0.0012637
22.25,242.538,10.852,100.101,-0.0010793
22.3,243.038,10.852,100.1,-0.0010860
22.35,243.538,10.852,100.1,-0.0009989
22.4,244.038,10.852,100.099,-0.0000912
22.44,244.538,10.852,100.099,-0.0005879
22.49,245.038,10.852,100.099,-0.0014360
22.54,245.538,10.852,100.098,-0.0010756
22.59,246.039,10.852,100.098,-0.0008538
22.64,246.539,10.852,100.097,-0.0016655
22.69,247.039,10.852,100.096,-0.0010373
22.74,247.539,10.852,100.096,-0.0005870
22.79,248.039,10.852,100.095,-0.0008168
22.84,248.539,10.852,100.095,-0.0016292
22.89,249.039,10.852,100.094,-0.0007307
22.94,249.539,10.852,100.094,-0.0003675
22.99,250.039,10.852,100.093,-0.0018194
23.04,250.539,10.852,100.093,-0.0010819
23.09,251.039,10.851,100.092,-0.0005866
23.14,251.54,10.851,100.092,-0.0014455
23.19,252.04,10.851,100.092,-0.0015361
23.24,252.54,10.851,100.091,-0.0009977
23.28,253.04,10.851,100.091,-0.0002713
23.33,253.54,10.851,100.09,-0.0011285
23.38,254.04,10.851,100.089,-0.0005436
23.43,254.54,10.851,100.089,-0.0010924
23.48,255.04,10.851,100.088,-0.0008258
23.53,255.54,10.851,100.088,-0.0010087
23.58,256.04,10.851,100.087,-0.0015096
23.63,256.54,10.851,100.087,-0.0006393
23.68,257.041,10.851,100.086,-0.0011840
23.73,257.541,10.851,100.086,-0.0011797
23.78,258.041,10.851,100.085,-0.0003634
23.83,258.541,10.851,100.085,-0.0004554
23.88,259.041,10.851,100.085,-0.0008251
23.93,259.541,10.851,100.084,-0.0005551
23.98,260.041,10.851,100.084,-0.0008829
24.03,260.541,10.85,100.083,-0.0011180
24.08,261.041,10.85,100.083,-0.0005104
24.14,261.541,10.85,100.082,-0.0014782
24.19,262.041,10.85,100.081,-0.0014225
24.24,262.542,10.85,100.081,-0.0012489
24.29,263.042,10.85,100.08,-0.0009355
24.34,263.542,10.85,100.08,-0.0009918
24.39,264.042,10.85,100.079,-0.0009375
24.44,264.542,10.85,100.078,-0.0010732
24.49,265.042,10.85,100.078,-0.0009670
24.54,265.542,10.85,100.077,-0.0010009
24.59,266.042,10.85,100.077,-0.0008195
24.64,266.542,10.85,100.076,-0.0005467
24.69,267.042,10.85,100.076,-0.0012329
24.74,267.542,10.85,100.075,-0.0009610
24.79,268.043,10.85,100.075,-0.0013239
24.84,268.543,10.849,100.074,-0.0013213
24.89,269.043,10.849,100.073,-0.0009087
24.94,269.543,10.849,100.073,-0.0007731
24.99,270.043,10.849,100.073,-0.0008663
25.04,270.543,10.849,100.072,-0.0012306
25.09,271.043,10.849,100.072,-0.0007738
25.14,271.543,10.849,100.071,-0.0012786
25.19,272.043,10.849,100.071,-0.0003160
25.24,272.543,10.849,100.07,-0.0014440
25.29,273.043,10.849,100.07,-0.0015517
25.34,273.543,10.849,100.069,-0.0013371
25.39,274.044,10.849,100.068,-0.0012496
25.44,274.544,10.849,100.068,-0.0007885
25.49,275.044,10.849,100.067,-0.0011628
25.54,275.544,10.849,100.067,-0.0005116
25.59,276.044,10.849,100.066,-0.0011075
25.64,276.544,10.849,100.066,-0.0010099
25.69,277.044,10.849,100.065,-0.0013278
25.74,277.544,10.848,100.064,-0.0007775
25.79,278.044,10.848,100.064,-0.0012333
25.84,278.544,10.848,100.063,-0.0007770
25.89,279.044,10.848,100.063,-0.0009615
25.94,279.545,10.848,100.062,-0.0009619
25.99,280.045,10.848,100.062,-0.0009184
26.04,280.545,10.848,100.061,-0.0016529
26.09,281.045,10.848,100.06,-0.0009169
26.14,281.545,10.848,100.06,-0.0016529
26.19,282.045,10.848,100.059,-0.0015104
26.24,282.545,10.848,100.058,-0.0017419
26.29,283.045,10.848,100.057,-0.0017425
26.34,283.545,10.848,100.057,-0.0018032
26.39,284.045,10.848,100.056,-0.0020321
26.44,284.545,10.847,100.055,-0.0012512
26.49,285.046,10.847,100.055,-0.0018115
26.54,285.546,10.847,100.054,-0.0016950
26.59,286.046,10.847,100.053,-0.0016263
26.65,286.546,10.847,100.052,-0.0017317
26.7,287.046,10.847,100.051,-0.0016834
26.75,287.546,10.847,100.051,-0.0012504
26.8,288.046,10.847,100.05,-0.0015371
26.85,288.546,10.847,100.049,-0.0019207
26.9,289.046,10.847,100.049,-0.0013719
26.95,289.546,10.847,100.048,-0.0008442
26.99,290.046,10.847,100.047,-0.0016159
27.04,290.547,10.846,100.046,-0.0016825
27.09,291.047,10.846,100.046,-0.0010955
27.14,291.547,10.846,100.045,-0.0016012
27.19,292.047,10.846,100.044,-0.0014168
27.24,292.547,10.846,100.044,-0.0012262
27.29,293.047,10.846,100.043,-0.0013477
27.34,293.547,10.846,100.042,-0.0016100
27.39,294.047,10.846,100.041,-0.0017047
27.44,294.547,10.846,100.041,-0.0018018
27.49,295.047,10.846,100.04,-0.0018509
27.54,295.547,10.846,100.039,-0.0021552
27.59,296.048,10.846,100.038,-0.0017412
27.64,296.548,10.845,100.037,-0.0012301
27.69,297.048,10.845,100.036,-0.0015796
27.74,297.548,10.845,100.036,-0.0014545
27.79,298.048,10.845,100.035,-0.0008616
27.84,298.548,10.845,100.034,-0.0007741
27.89,299.048,10.845,100.033,-0.0015019
27.94,299.548,10.845,100.033,-0.0017874
27.99,300.048,10.845,100.032,-0.0019988
28.04,300.548,10.845,100.031,-0.0014273
28.09,301.048,10.845,100.03,-0.0019607
28.14,301.548,10.845,100.03,-0.0007585
28.19,302.049,10.845,100.029,-0.0018468
28.24,302.549,10.844,100.028,-0.0020454
28.29,303.049,10.844,100.027,-0.0018766
28.34,303.549,10.844,100.026,-0.0022518
28.39,304.049,10.844,100.025,-0.0029948
28.44,304.549,10.844,100.024,-0.0021636
28.49,305.049,10.844,100.023,-0.0018235
28.54,305.549,10.844,100.022,-0.0017263
28.59,306.049,10.844,100.021,-0.0009561
28.64,306.549,10.844,100.02,-0.0019587
28.7,307.049,10.844,100.02,-0.0015744
28.75,307.55,10.843,100.019,-0.0018755
28.8,308.05,10.843,100.018,-0.0010671
28.85,308.55,10.843,100.017,-0.0015132
28.9,309.05,10.843,100.016,-0.0014638
28.95,309.55,10.843,100.015,-0.0019203
29,310.05,10.843,100.014,-0.0020886
29.05,310.55,10.843,100.013,-0.0024209
29.1,311.05,10.843,100.012,-0.0022444
29.15,311.55,10.843,100.011,-0.0019287
29.2,312.05,10.843,100.011,-0.0022399
29.25,312.55,10.842,100.009,-0.0022273
29.3,313.051,10.842,100.008,-0.0016812
29.35,313.551,10.842,100.008,-0.0020263
29.4,314.051,10.842,100.007,-0.0020887
29.45,314.551,10.842,100.006,-0.0021830
29.5,315.051,10.842,100.005,-0.0015554
29.55,315.551,10.842,100.004,-0.0017020
29.6,316.051,10.842,100.003,-0.0022120
29.65,316.551,10.842,100.002,-0.0020776
29.7,317.051,10.842,100.001,-0.0026676
29.75,317.551,10.841,100,-0.0020689
29.8,318.051,10.841,99.998,-0.0020239
29.85,318.552,10.841,99.998,-0.0020447
29.9,319.052,10.841,99.996,-0.0024012
29.95,319.552,10.841,99.995,-0.0020336
30,320.052,10.841,99.994,-0.0020406
30.05,320.552,10.841,99.993,-0.0024725
30.1,321.052,10.841,99.992,-0.0024694
30.15,321.552,10.84,99.991,-0.0024379
30.2,322.052,10.84,99.99,-0.0026404
30.25,322.552,10.84,99.988,-0.0025177
30.3,323.052,10.84,99.987,-0.0019297
30.35,323.552,10.84,99.986,-0.0019980
30.4,324.053,10.84,99.985,-0.0016453
30.45,324.553,10.84,99.985,-0.0006811
30.5,325.053,10.84,99.984,-0.0025872
30.55,325.553,10.84,99.983,-0.0027407
30.6,326.053,10.839,99.981,-0.0024774
30.65,326.553,10.839,99.98,-0.0014306
30.7,327.053,10.839,99.979,-0.0020897
30.75,327.553,10.839,99.978,-0.0023979
30.8,328.053,10.839,99.977,-0.0017196
30.84,328.553,10.839,99.976,-0.0020018
30.89,329.053,10.839,99.975,-0.0021583
30.94,329.553,10.839,99.974,-0.0021790
30.99,330.054,10.839,99.973,-0.0021122
31.04,330.554,10.838,99.972,-0.0031136
31.09,331.054,10.838,99.97,-0.0027015
31.14,331.554,10.838,99.969,-0.0025651
31.19,332.054,10.838,99.968,-0.0026571
31.24,332.554,10.838,99.967,-0.0032545
31.29,333.054,10.838,99.965,-0.0025669
31.34,333.554,10.838,99.964,-0.0023401
31.39,334.054,10.837,99.963,-0.0027956
31.44,334.554,10.837,99.961,-0.0025618
31.49,335.054,10.837,99.96,-0.0027982
31.54,335.555,10.837,99.959,-0.0021031
31.59,336.055,10.837,99.958,-0.0025170
31.64,336.555,10.837,99.957,-0.0021071
31.69,337.055,10.837,99.956,-0.0025161
31.74,337.555,10.837,99.954,-0.0026460
31.79,338.055,10.836,99.953,-0.0025023
31.84,338.555,10.836,99.952,-0.0027737
31.89,339.055,10.836,99.951,-0.0030599
31.94,339.555,10.836,99.949,-0.0030248
31.99,340.055,10.836,99.948,-0.0022420
32.04,340.555,10.836,99.947,-0.0015987
32.09,341.056,10.836,99.945,-0.0029250
32.14,341.556,10.835,99.944,-0.0021508
32.19,342.056,10.835,99.943,-0.0023846
32.24,342.556,10.835,99.941,-0.0030291
32.29,343.056,10.835,99.94,-0.0029337
32.34,343.556,10.835,99.938,-0.0028883
32.39,344.056,10.835,99.937,-0.0034422
32.44,344.556,10.834,99.936,-0.0034480
32.49,345.056,10.834,99.934,-0.0023910
32.54,345.556,10.834,99.933,-0.0025266
32.59,346.056,10.834,99.932,-0.0025659
32.64,346.557,10.834,99.93,-0.0024237
32.69,347.057,10.834,99.929,-0.0023800
32.74,347.557,10.834,99.928,-0.0029817
32.79,348.057,10.833,99.926,-0.0025454
32.84,348.557,10.833,99.925,-0.0023439
32.9,349.057,10.833,99.924,-0.0028975
32.95,349.557,10.833,99.922,-0.0028286
33,350.057,10.833,99.921,-0.0020853
33.05,350.557,10.833,99.92,-0.0028469
33.1,351.057,10.833,99.918,-0.0036131
33.15,351.557,10.832,99.917,-0.0027982
33.2,352.058,10.832,99.916,-0.0024635
33.25,352.558,10.832,99.914,-0.0029070
33.3,353.058,10.832,99.913,-0.0028357
33.35,353.558,10.832,99.912,-0.0025345
33.4,354.058,10.832,99.91,-0.0030039
33.45,354.558,10.832,99.909,-0.0031466
33.5,355.058,10.831,99.907,-0.0028315
33.55,355.558,10.831,99.906,-0.0029767
33.6,356.058,10.831,99.905,-0.0032810
33.66,356.558,10.831,99.903,-0.0033735
33.71,357.058,10.831,99.902,-0.0026205
33.76,357.558,10.831,99.9,-0.0029167
33.81,358.059,10.83,99.898,-0.0035497
33.86,358.559,10.83,99.897,-0.0024514
33.91,359.059,10.83,99.896,-0.0022070
33.95,359.559,10.83,99.894,-0.0027664
34,360.059,10.83,99.893,-0.0028756
34.05,360.559,10.83,99.891,-0.0027101
34.1,361.059,10.83,99.89,-0.0033020
34.15,361.559,10.829,99.889,-0.0032127
34.2,362.059,10.829,99.887,-0.0025225
34.25,362.559,10.829,99.886,-0.0028829
34.3,363.059,10.829,99.884,-0.0034253
34.35,363.56,10.829,99.882,-0.0031109
34.4,364.06,10.829,99.881,-0.0032596
34.45,364.56,10.828,99.879,-0.0035506
34.5,365.06,10.828,99.878,-0.0031062
34.55,365.56,10.828,99.876,-0.0029250
34.6,366.06,10.828,99.875,-0.0023810
34.65,366.56,10.828,99.874,-0.0029870
34.7,367.06,10.828,99.872,-0.0035563
34.75,367.56,10.827,99.87,-0.0035747
34.8,368.06,10.827,99.869,-0.0034374
34.85,368.56,10.827,99.867,-0.0030329
34.9,369.061,10.827,99.866,-0.0030807
34.95,369.561,10.827,99.864,-0.0033170
35,370.061,10.827,99.862,-0.0036705
35.05,370.561,10.826,99.86,-0.0032722
35.1,371.061,10.826,99.859,-0.0038126
35.15,371.561,10.826,99.857,-0.0031047
35.2,372.061,10.826,99.855,-0.0034640
35.25,372.561,10.826,99.854,-0.0031748
35.3,373.061,10.825,99.852,-0.0033875
35.35,373.561,10.825,99.851,-0.0027603
35.4,374.061,10.825,99.849,-0.0037084
35.45,374.562,10.825,99.847,-0.0034791
35.5,375.062,10.825,99.846,-0.0040528
35.55,375.562,10.825,99.844,-0.0027592
35.6,376.062,10.824,99.842,-0.0038935
35.65,376.562,10.824,99.84,-0.0040199
35.69,377.062,10.824,99.838,-0.0035974
35.74,377.562,10.824,99.837,-0.0035629
35.79,378.062,10.824,99.835,-0.0042025
35.84,378.562,10.823,99.833,-0.0032770
35.89,379.062,10.823,99.832,-0.0037423
35.94,379.562,10.823,99.83,-0.0037293
35.99,380.063,10.823,99.828,-0.0039726
36.04,380.563,10.823,99.826,-0.0032227
36.09,381.063,10.822,99.824,-0.0037434
36.14,381.563,10.822,99.822,-0.0037570
36.19,382.063,10.822,99.82,-0.0037307
36.24,382.563,10.822,99.819,-0.0036543
36.29,383.063,10.822,99.817,-0.0045388
36.34,383.563,10.821,99.814,-0.0042256
36.39,384.063,10.821,99.813,-0.0035912
36.44,384.563,10.821,99.811,-0.0043794
36.49,385.063,10.821,99.808,-0.0048104
36.54,385.563,10.82,99.806,-0.0037604
36.59,386.064,10.82,99.804,-0.0039831
36.65,386.564,10.82,99.802,-0.0044306
36.7,387.064,10.82,99.8,-0.0039165
36.75,387.564,10.82,99.798,-0.0038235
36.8,388.064,10.819,99.796,-0.0043746
36.85,388.564,10.819,99.794,-0.0041104
36.9,389.064,10.819,99.791,-0.0036622
36.95,389.564,10.819,99.789,-0.0045597
37,390.064,10.818,99.787,-0.0049368
37.06,390.564,10.818,99.785,-0.0042245
37.11,391.064,10.818,99.783,-0.0043844
37.16,391.565,10.818,99.78,-0.0047842
37.21,392.065,10.817,99.778,-0.0039857
37.26,392.565,10.817,99.776,-0.0045268
37.31,393.065,10.817,99.773,-0.0054849
37.36,393.565,10.817,99.771,-0.0054799
37.41,394.065,10.816,99.768,-0.0046750
37.45,394.565,10.816,99.766,-0.0047964
37.5,395.065,10.816,99.763,-0.0049146
37.55,395.565,10.816,99.761,-0.0051245
37.6,396.065,10.815,99.758,-0.0044133
37.65,396.565,10.815,99.756,-0.0050550
37.7,397.066,10.815,99.753,-0.0055210
37.75,397.566,10.814,99.751,-0.0053383
37.8,398.066,10.814,99.748,-0.0054632
37.85,398.566,10.814,99.745,-0.0061175
37.9,399.066,10.814,99.743,-0.0054871
37.95,399.566,10.813,99.74,-0.0061885
38,400.066,10.813,99.737,-0.0065573
38.05,400.566,10.813,99.734,-0.0061078
38.1,401.066,10.812,99.731,-0.0064995
38.15,401.566,10.812,99.728,-0.0059019
38.2,402.066,10.812,99.725,-0.0061198
38.25,402.567,10.811,99.722,-0.0058738
38.3,403.067,10.811,99.719,-0.0067604
38.35,403.567,10.811,99.715,-0.0062365
38.39,404.067,10.81,99.712,-0.0066423
38.44,404.567,10.81,99.709,-0.0064964
38.49,405.067,10.81,99.706,-0.0069106
38.54,405.567,10.809,99.702,-0.0067297
38.59,406.067,10.809,99.699,-0.0064964
38.64,406.567,10.808,99.695,-0.0073310
38.69,407.067,10.808,99.692,-0.0075251
38.74,407.567,10.808,99.688,-0.0073040
38.79,408.068,10.807,99.684,-0.0076917
38.84,408.568,10.807,99.68,-0.0076958
38.89,409.068,10.806,99.677,-0.0074634
38.94,409.568,10.806,99.673,-0.0077101
38.99,410.068,10.806,99.669,-0.0080993
39.04,410.568,10.805,99.664,-0.0081640
39.09,411.068,10.805,99.66,-0.0083646
39.14,411.568,10.804,99.656,-0.0083332
39.19,412.068,10.804,99.652,-0.0079422
39.24,412.568,10.803,99.647,-0.0084163
39.29,413.068,10.803,99.643,-0.0090310
39.34,413.568,10.802,99.638,-0.0097913
39.39,414.069,10.802,99.633,-0.0098031
39.44,414.569,10.801,99.628,-0.0096153
39.49,415.069,10.801,99.623,-0.0103007
39.54,415.569,10.8,99.618,-0.0099819
39.59,416.069,10.8,99.613,-0.0101098
39.64,416.569,10.799,99.608,-0.0101513
39.7,417.069,10.798,99.602,-0.0110807
39.75,417.569,10.798,99.597,-0.0116279
39.8,418.069,10.797,99.591,-0.0113953
39.85,418.569,10.797,99.586,-0.0105418
39.9,419.069,10.796,99.58,-0.0122305
39.95,419.57,10.795,99.574,-0.0119069
40,420.07,10.795,99.568,-0.0128809
40.05,420.57,10.794,99.561,-0.0131970
40.1,421.07,10.793,99.554,-0.0125409
40.15,421.57,10.792,99.548,-0.0137313
40.2,422.07,10.792,99.541,-0.0130631
40.25,422.57,10.791,99.534,-0.0139543
40.3,423.07,10.79,99.527,-0.0145105
40.35,423.57,10.789,99.519,-0.0147325
40.4,424.07,10.789,99.512,-0.0149450
40.45,424.57,10.788,99.504,-0.0147779
40.5,425.071,10.787,99.496,-0.0164383
40.54,425.571,10.786,99.488,-0.0169345
40.59,426.071,10.785,99.48,-0.0165120
40.64,426.571,10.784,99.472,-0.0172509
40.69,427.071,10.783,99.463,-0.0183486
40.74,427.571,10.782,99.454,-0.0175318
40.79,428.071,10.781,99.445,-0.0182825
40.85,428.571,10.78,99.435,-0.0191667
40.9,429.071,10.779,99.426,-0.0195914
40.95,429.571,10.778,99.416,-0.0195814
41,430.071,10.777,99.406,-0.0204621
41.05,430.572,10.776,99.396,-0.0204903
41.1,431.072,10.775,99.385,-0.0201012
41.15,431.572,10.774,99.375,-0.0217192
41.2,432.072,10.773,99.364,-0.0210050
41.25,432.572,10.771,99.353,-0.0225850
41.3,433.072,10.77,99.342,-0.0225092
41.35,433.572,10.769,99.33,-0.0236330
41.4,434.072,10.768,99.318,-0.0237723
41.45,434.572,10.766,99.306,-0.0239230
41.5,435.072,10.765,99.294,-0.0250368
41.55,435.572,10.764,99.281,-0.0256672
41.6,436.073,10.762,99.269,-0.0260330
41.65,436.573,10.761,99.256,-0.0261384
41.7,437.073,10.759,99.242,-0.0269203
41.75,437.573,10.758,99.229,-0.0273960
41.8,438.073,10.756,99.215,-0.0281221
41.85,438.573,10.755,99.201,-0.0283978
41.9,439.073,10.753,99.187,-0.0285971
41.95,439.573,10.752,99.172,-0.0290381
42,440.073,10.75,99.158,-0.0302836
42.05,440.573,10.748,99.142,-0.0313592
42.1,441.073,10.747,99.126,-0.0315747
42.15,441.573,10.745,99.11,-0.0323863
42.2,442.074,10.743,99.093,-0.0333761
42.25,442.574,10.741,99.076,-0.0341763
42.3,443.074,10.739,99.059,-0.0350365
42.35,443.574,10.738,99.042,-0.0355706
42.4,444.074,10.736,99.023,-0.0361522
42.45,444.574,10.734,99.005,-0.0366505
42.5,445.074,10.732,98.987,-0.0372168
42.55,445.574,10.73,98.967,-0.0391555
42.6,446.074,10.727,98.948,-0.0399727
42.65,446.574,10.725,98.928,-0.0410031
42.7,447.074,10.723,98.907,-0.0424728
42.75,447.575,10.721,98.886,-0.0435182
42.8,448.075,10.718,98.864,-0.0433028
42.85,448.575,10.716,98.842,-0.0446412
42.9,449.075,10.713,98.82,-0.0454751
42.95,449.575,10.711,98.796,-0.0461426
42.99,450.075,10.709,98.774,-0.0469808
43.05,450.575,10.706,98.749,-0.0488264
43.09,451.075,10.703,98.725,-0.0490926
43.14,451.575,10.701,98.7,-0.0498645
43.19,452.075,10.698,98.674,-0.0508175
43.24,452.575,10.695,98.648,-0.0526435
43.29,453.076,10.692,98.622,-0.0534974
43.34,453.576,10.689,98.595,-0.0553442
43.39,454.076,10.686,98.566,-0.0568264
43.44,454.576,10.683,98.539,-0.0574785
43.49,455.076,10.68,98.509,-0.0591352
43.54,455.576,10.677,98.48,-0.0598997
43.59,456.076,10.673,98.449,-0.0624772
43.64,456.576,10.67,98.417,-0.0633496
43.69,457.076,10.666,98.385,-0.0654620
43.74,457.576,10.663,98.352,-0.0681119
43.79,458.076,10.659,98.317,-0.0711662
43.84,458.577,10.655,98.28,-0.0747664
43.89,459.077,10.651,98.243,-0.0756685
43.94,459.577,10.647,98.204,-0.0756263
43.99,460.077,10.643,98.167,-0.0772726
44.04,460.577,10.638,98.127,-0.0788349
44.09,461.077,10.634,98.087,-0.0815931
44.14,461.577,10.63,98.045,-0.0840643
44.19,462.077,10.625,98.003,-0.0867188
44.24,462.577,10.62,97.959,-0.0890915
44.29,463.077,10.615,97.915,-0.0908418
44.34,463.577,10.61,97.868,-0.0948437
44.39,464.078,10.605,97.821,-0.0971753
44.44,464.578,10.6,97.771,-0.0989700
44.49,465.078,10.594,97.721,-0.1019630
44.54,465.578,10.589,97.67,-0.1045070
44.59,466.078,10.583,97.617,-0.1072290
44.64,466.578,10.577,97.561,-0.1208570
44.69,467.078,10.571,97.503,-0.1253250
44.74,467.578,10.564,97.438,-0.1210720
44.79,468.078,10.557,97.373,-0.1377260
44.84,468.578,10.549,97.303,-0.1403310
44.89,469.078,10.541,97.231,-0.1551270
44.94,469.578,10.533,97.158,-0.1520320
45,470.079,10.525,97.08,-0.1515730
45.05,470.579,10.516,97.001,-0.1548050
45.1,471.079,10.508,96.92,-0.1650110
45.14,471.579,10.499,96.84,-0.1638430
45.19,472.079,10.49,96.754,-0.1785710
45.24,472.579,10.48,96.665,-0.1782850
45.29,473.079,10.47,96.574,-0.1879700
45.34,473.579,10.46,96.481,-0.1920780
45.39,474.079,10.449,96.382,-0.2059130
45.44,474.579,10.438,96.282,-0.2067560
45.5,475.079,10.427,96.176,-0.2138850
45.55,475.58,10.415,96.069,-0.2287290
45.6,476.08,10.403,95.954,-0.2319270
45.65,476.58,10.39,95.836,-0.2505040
45.7,477.08,10.377,95.712,-0.2650650
45.75,477.58,10.362,95.576,-0.2876120
45.8,478.08,10.346,95.426,-0.3001380
45.85,478.58,10.329,95.273,-0.3145120
45.9,479.08,10.311,95.109,-0.3473880
45.95,479.58,10.292,94.936,-0.3504050
46,480.08,10.274,94.762,-0.3593460
46.05,480.58,10.254,94.578,-0.3844710
46.1,481.081,10.233,94.384,-0.3958180
46.15,481.581,10.21,94.178,-0.4200750
46.2,482.081,10.188,93.969,-0.4268950
46.25,482.581,10.164,93.753,-0.4471430
46.3,483.081,10.14,93.529,-0.4626620
46.35,483.581,10.115,93.297,-0.4812160
46.4,484.081,10.089,93.057,-0.4822250
46.45,484.581,10.062,92.806,-0.5204340
46.5,485.081,10.033,92.539,-0.5366280
46.55,485.581,10.005,92.282,-0.5481280
46.6,486.081,9.975,92.005,-0.5630610
46.65,486.582,9.944,91.717,-0.5762370
46.7,487.082,9.912,91.422,-0.6127610
46.75,487.582,9.878,91.114,-0.6366000
46.8,488.082,9.844,90.795,-0.6574560
46.85,488.582,9.807,90.455,-0.7022410
46.9,489.082,9.768,90.102,-0.7386240
46.95,489.582,9.728,89.733,-0.7606420
47,490.082,9.685,89.334,-0.8257130
47.05,490.582,9.641,88.93,-0.8397890
47.1,491.082,9.596,88.508,-0.8565610
47.15,491.582,9.547,88.058,-0.9551500
47.2,492.083,9.491,87.546,-1.11082
47.25,492.583,9.429,86.969,-1.20532
47.3,493.083,9.367,86.402,-1.17524
47.35,493.583,9.304,85.816,-1.16394
47.4,494.083,9.239,85.224,-1.18123
47.45,494.583,9.175,84.625,-1.15771
47.49,495.083,9.106,83.992,-1.26866
47.54,495.583,9.025,83.246,-1.53833
47.59,496.083,8.942,82.478,-1.44092
47.64,496.583,8.865,81.77,-1.44177
47.69,497.083,8.786,81.036,-1.48459
47.74,497.583,8.703,80.276,-1.59309
47.79,498.084,8.617,79.483,-1.69887
47.84,498.584,8.526,78.641,-1.66915
47.9,499.084,8.434,77.79,-1.69808
47.95,499.584,8.341,76.932,-1.72887
48,500.084,8.239,75.993,-1.88237
48.05,500.584,8.135,75.035,-1.8372
48.1,501.084,8.03,74.067,-1.98281
48.15,501.584,7.92,73.057,-2.02107
48.2,502.084,7.807,72.01,-2.0593
48.25,502.584,7.692,70.953,-2.01274
48.3,503.084,7.573,69.851,-2.33407
48.35,503.585,7.441,68.632,-2.57844
48.4,504.085,7.29,67.239,-2.8712
48.45,504.585,7.132,65.788,-2.99644
48.5,505.085,6.97,64.291,-2.80673
48.55,505.585,6.812,62.835,-2.92806
48.6,506.085,6.653,61.364,-3.06824
48.65,506.585,6.475,59.724,-3.1425
48.7,507.085,6.291,58.025,-3.55302
48.75,507.585,6.084,56.117,-3.88411
48.8,508.085,5.889,54.323,-3.67032
48.85,508.585,5.687,52.456,-3.69476
48.9,509.086,5.459,50.355,-3.59405
48.95,509.586,5.338,49.237,-2.32465
48.99,510.086,5.213,48.08,-2.49699
49.04,510.586,5.067,46.739,-2.69263
49.09,511.086,4.92,45.379,-2.84586
49.14,511.586,4.76,43.909,-2.98454
49.19,512.086,4.596,42.392,-3.06531
49.24,512.586,4.427,40.833,-3.2042
49.29,513.086,4.247,39.178,-3.30884
49.34,513.586,4.07,37.539,-3.32092
49.4,514.086,3.879,35.779,-3.76546
49.45,514.587,3.665,33.803,-4.15512
49.5,515.087,3.443,31.759,-3.96802
49.55,515.587,3.244,29.922,-3.34318
49.59,516.087,3.062,28.239,-3.48493
49.64,516.587,2.871,26.486,-3.52416
49.69,517.087,2.679,24.706,-3.64066
49.74,517.587,2.471,22.789,-4.31591
49.79,518.087,2.303,21.245,-3.11309
49.84,518.587,2.132,19.663,-3.30779
49.89,519.087,1.957,18.05,-3.21333
49.94,519.587,1.788,16.495,-3.11735
49.99,520.088,1.623,14.97,-3.12144
50.04,520.588,1.454,13.414,-2.99557
50.09,521.088,1.295,11.945,-2.90792
50.14,521.588,1.136,10.48,-2.83404
50.2,522.088,0.9860000,9.091,-2.68722
50.25,522.588,0.8440000,7.784,-2.45694
50.3,523.088,0.7160000,6.607,-2.23711
50.35,523.588,0.6000000,5.534,-1.99083
50.4,524.088,0.4980000,4.598,-1.75355
50.44,524.588,0.4080000,3.766,-1.55314
50.49,525.088,0.3290000,3.036,-1.38445
50.54,525.588,0.2590000,2.388,-1.15607
50.59,526.089,0.2030000,1.868,-0.9498540
50.64,526.589,0.1550000,1.431,-0.7784370
50.69,527.089,0.1180000,1.086,-0.5993830
50.74,527.589,0.0890000,0.8170000,-0.4573840
50.79,528.089,0.0680000,0.6250000,-0.3261220
50.84,528.589,0.0530000,0.4900000,-0.2186460
50.89,529.089,0.0440000,0.4010000,-0.1485310
50.94,529.589,0.0370000,0.3450000,-0.0887536
50.99,530.089,0.0340000,0.3100000,-0.0531457
51.04,530.589,0.0310000,0.2830000,-0.0559180
51.1,531.089,0.0280000,0.2540000,-0.0541848
51.15,531.59,0.0250000,0.2290000,-0.0491757
51.2,532.09,0.0220000,0.2060000,-0.0428096
51.25,532.59,0.0200000,0.1860000,-0.0351700
51.3,533.09,0.0180000,0.1700000,-0.0285423
51.35,533.59,0.0170000,0.1570000,-0.0241544
51.4,534.09,0.0160000,0.1460000,-0.0188091
51.45,534.59,0.0150000,0.1380000,-0.0148177
51.5,535.09,0.0140000,0.1310000,-0.0121515
51.55,535.59,0.0140000,0.1260000,-0.0090285
51.6,536.09,0.0130000,0.1220000,-0.0067284
51.65,536.59,0.0130000,0.1190000,-0.0053934
51.7,537.091,0.0130000,0.1160000,-0.0052345
51.75,537.591,0.0120000,0.1140000,-0.0038835
51.8,538.091,0.0120000,0.1120000,-0.0032809
51.85,538.591,0.0120000,0.1100000,-0.0028056
51.9,539.091,0.0120000,0.1090000,-0.0018296
51.95,539.591,0.0120000,0.1080000,-0.0014446
52,540.091,0.0120000,0.1070000,-0.0019197
52.05,540.591,0.0120000,0.1070000,-0.0011049
52.1,541.091,0.0120000,0.1060000,-0.0011539
52.15,541.591,0.0110000,0.1060000,-0.0011965
52.2,542.091,0.0110000,0.1050000,-0.0008342
52.25,542.592,0.0110000,0.1050000,-0.0003492
52.3,543.092,0.0110000,0.1040000,-0.0007613
52.35,543.592,0.0110000,0.1040000,-0.0007089
52.4,544.092,0.0110000,0.1040000,-0.0009350
52.45,544.592,0.0110000,0.1030000,-0.0005097
52.5,545.092,0.0110000,0.1030000,-0.0007697
52.55,545.592,0.0110000,0.1020000,-0.0001566
52.61,546.092,0.0110000,0.1020000,-0.0000464
52.65,546.592,0.0110000,0.1020000,-0.0004151
52.7,547.092,0.0110000,0.1020000,-0.0004372
52.75,547.592,0.0110000,0.1020000,-0.0001205
52.8,548.093,0.0110000,0.1010000,-0.0000867
52.85,548.593,0.0110000,0.1010000,-0.0010266
52.9,549.093,0.0110000,0.1010000,0.0002025
52.95,549.593,0.0110000,0.1010000,0.0005662
53,550.093,0.0110000,0.1010000,-0.0004747
53.05,550.593,0.0110000,0.1010000,-0.0006694
53.1,551.093,0.0110000,0.1010000,0.0003300
53.16,551.593,0.0110000,0.1010000,-0.0003256
53.21,552.093,0.0110000,0.1000000,-0.0012076
53.26,552.593,0.0110000,0.1000000,-0.0002069
53.31,553.093,0.0110000,0.1000000,-0.0005560
53.36,553.593,0.0110000,0.1000000,-0.0010850
53.41,554.094,0.0110000,0.0990000,-0.0007080
53.46,554.594,0.0110000,0.0990000,0.0000297
53.51,555.094,0.0110000,0.0990000,-0.0005317
53.56,555.594,0.0110000,0.0990000,-0.0004751
53.61,556.094,0.0110000,0.0990000,-0.0000814
53.65,556.594,0.0110000,0.0980000,-0.0004194
53.71,557.094,0.0110000,0.0980000,0.0003387
53.76,557.594,0.0110000,0.0980000,-0.0002760
53.81,558.094,0.0110000,0.0980000,0.0002257
53.86,558.594,0.0110000,0.0980000,-0.0002323
53.9,559.094,0.0110000,0.0980000,-0.0003854
53.95,559.595,0.0110000,0.0980000,-0.0000086
54,560.095,0.0110000,0.0970000,-0.0001035
54.05,560.595,0.0110000,0.0970000,-0.0003403
54.1,561.095,0.0110000,0.0970000,-0.0000841
54.15,561.595,0.0110000,0.0970000,-0.0001399
54.19,562.095,0.0110000,0.0970000,-0.0007024
54.24,562.595,0.0110000,0.0970000,-0.0006525
54.29,563.095,0.0100000,0.0970000,-0.0001789
54.35,563.595,0.0100000,0.0970000,-0.0004785
54.4,564.095,0.0100000,0.0960000,-0.0008896
54.45,564.595,0.0100000,0.0960000,-0.0013720
54.5,565.096,0.0100000,0.0960000,0.0000509
54.55,565.596,0.0100000,0.0960000,-0.0001438
54.6,566.096,0.0100000,0.0960000,-0.0003995
54.65,566.596,0.0100000,0.0960000,-0.0004889
54.7,567.096,0.0100000,0.0950000,-0.0004439
54.75,567.596,0.0100000,0.0950000,-0.0000700
54.8,568.096,0.0100000,0.0950000,0.0000569
54.85,568.596,0.0100000,0.0950000,-0.0007972
54.9,569.096,0.0100000,0.0950000,-0.0004860
54.95,569.596,0.0100000,0.0940000,-0.0004276
55,570.096,0.0100000,0.0940000,-0.0004567
55.05,570.597,0.0100000,0.0940000,-0.0009085
55.1,571.097,0.0100000,0.0940000,-0.0008133
55.15,571.597,0.0100000,0.0930000,-0.0005465
55.2,572.097,0.0100000,0.0930000,-0.0007995
55.25,572.597,0.0100000,0.0930000,-0.0003060
55.3,573.097,0.0100000,0.0930000,-0.0005104
55.35,573.597,0.0100000,0.0930000,-0.0004096
55.4,574.097,0.0100000,0.0920000,-0.0011335
55.45,574.597,0.0100000,0.0920000,0.0010879
55.5,575.097,0.0100000,0.0920000,-0.0004278
55.55,575.597,0.0100000,0.0910000,-0.0003826
55.6,576.098,0.0100000,0.0910000,-0.0003146
55.65,576.598,0.0100000,0.0910000,0.0001580
55.7,577.098,0.0100000,0.0910000,-0.0002614
55.75,577.598,0.0100000,0.0910000,-0.0007802
55.8,578.098,0.0100000,0.0900000,-0.0004928
55.85,578.598,0.0100000,0.0900000,-0.0004705
55.9,579.098,0.0100000,0.0900000,-0.0005681
55.95,579.598,0.0100000,0.0900000,-0.0001150
56,580.098,0.0100000,0.0890000,-0.0001648
56.05,580.598,0.0100000,0.0890000,-0.0008575
56.1,581.098,0.0100000,0.0890000,-0.0005653
56.15,581.598,0.0100000,0.0890000,-0.0003319
56.2,582.099,0.0100000,0.0890000,-0.0003211
56.25,582.599,0.0100000,0.0880000,-0.0008406
56.3,583.099,0.0100000,0.0880000,-0.0003443
56.35,583.599,0.0100000,0.0880000,-0.0005372
56.4,584.099,0.0100000,0.0880000,-0.0008907
56.45,584.599,0.0090000,0.0870000,-0.0005371
56.5,585.099,0.0090000,0.0870000,-0.0005846
56.55,585.599,0.0090000,0.0870000,-0.0011609
56.6,586.099,0.0090000,0.0870000,-0.0008081
56.65,586.599,0.0090000,0.0860000,-0.0005778
56.7,587.099,0.0090000,0.0860000,-0.0004534
56.75,587.6,0.0090000,0.0860000,-0.0008357
56.8,588.1,0.0090000,0.0860000,-0.0008412
56.85,588.6,0.0090000,0.0850000,-0.0005857
56.9,589.1,0.0090000,0.0850000,-0.0007101
56.95,589.6,0.0090000,0.0850000,-0.0000639
56.99,590,0.0090000,0.0850000,-0.0003527