File: R/rHDPE_App/app/www/Output/TGA/Condensed_Data/Resin23_0__1.csv
0.7500000,30,15.09,100.019,0.0100197
0.8200000,30.5001,15.091,100.021,0.0009620
0.8800000,31.0002,15.091,100.023,0.0082557
0.9400000,31.5003,15.091,100.026,0.0070599
1,32.0004,15.091,100.027,0.0061986
1.06,32.5004,15.092,100.028,0.0044797
1.12,33.0005,15.092,100.03,-0.0011177
1.18,33.5006,15.092,100.031,0.0020547
1.23,34.0007,15.092,100.032,0.0056284
1.29,34.5008,15.092,100.033,-0.0017066
1.35,35.0009,15.092,100.033,0.0018469
1.4,35.501,15.092,100.034,0.0032107
1.46,36.0011,15.093,100.035,-0.0000001
1.51,36.5012,15.093,100.036,0.0012071
1.57,37.0013,15.093,100.037,0.0040004
1.62,37.5013,15.093,100.038,0.0002986
1.68,38.0014,15.093,100.038,0.0022780
1.73,38.5015,15.093,100.039,0.0006908
1.78,39.0016,15.093,100.04,0.0020634
1.84,39.5017,15.093,100.041,0.0017628
1.89,40.0018,15.094,100.041,0.0008302
1.94,40.5019,15.094,100.042,0.0026810
2,41.002,15.094,100.043,0.0005351
2.05,41.5021,15.094,100.043,0.0007769
2.11,42.0021,15.094,100.044,0.0019392
2.16,42.5022,15.094,100.044,-0.0010159
2.21,43.0023,15.094,100.045,0.0017379
2.26,43.5024,15.094,100.046,0.0023610
2.32,44.0025,15.094,100.047,-0.0006250
2.37,44.5026,15.094,100.047,0.0011045
2.42,45.0027,15.095,100.048,0.0022056
2.47,45.5028,15.095,100.049,0.0013403
2.53,46.0029,15.095,100.049,0.0012427
2.58,46.5029,15.095,100.05,0.0015749
2.63,47.003,15.095,100.051,0.0010004
2.68,47.5031,15.095,100.051,0.0009038
2.73,48.0032,15.095,100.052,0.0027556
2.79,48.5033,15.095,100.053,0.0011860
2.84,49.0034,15.095,100.054,0.0001421
2.89,49.5035,15.095,100.054,0.0021762
2.94,50.0036,15.096,100.055,0.0023632
2.99,50.5037,15.096,100.056,-0.0003305
3.04,51.0038,15.096,100.056,0.0008952
3.09,51.5038,15.096,100.057,0.0020246
3.15,52.0039,15.096,100.058,0.0006116
3.2,52.504,15.096,100.058,0.0016438
3.25,53.0041,15.096,100.059,0.0030036
3.3,53.5042,15.096,100.06,0.0005158
3.35,54.0043,15.096,100.06,0.0002810
3.4,54.5044,15.096,100.06,0.0024798
3.45,55.0045,15.097,100.062,0.0018240
3.51,55.5046,15.097,100.062,0.0001869
3.56,56.0046,15.097,100.062,0.0014931
3.61,56.5047,15.097,100.063,0.0018189
3.66,57.0048,15.097,100.064,0.0003261
3.71,57.5049,15.097,100.064,0.0009315
3.76,58.005,15.097,100.065,0.0024190
3.81,58.5051,15.097,100.066,0.0003719
3.86,59.0052,15.097,100.066,0.0010686
3.91,59.5053,15.097,100.067,0.0019033
3.96,60.0054,15.097,100.067,0.0005569
4.01,60.5054,15.097,100.067,0.0010667
4.06,61.0055,15.098,100.068,0.0021320
4.11,61.5056,15.098,100.069,0.0019911
4.16,62.0057,15.098,100.069,-0.0010644
4.21,62.5058,15.098,100.069,0.0015725
4.27,63.0059,15.098,100.07,0.0025424
4.32,63.506,15.098,100.071,0.0000924
4.37,64.0061,15.098,100.071,0.0014784
4.42,64.5062,15.098,100.072,0.0022623
4.47,65.0063,15.098,100.073,0.0006925
4.52,65.5063,15.098,100.073,0.0002769
4.57,66.0064,15.098,100.073,0.0014300
4.62,66.5065,15.098,100.074,0.0011522
4.67,67.0066,15.099,100.074,0.0004148
4.72,67.5067,15.099,100.075,0.0018430
4.77,68.0068,15.099,100.076,0.0017029
4.82,68.5069,15.099,100.076,0.0001381
4.87,69.007,15.099,100.076,0.0010123
4.92,69.5071,15.099,100.077,0.0020695
4.97,70.0071,15.099,100.078,0.0005977
5.02,70.5072,15.099,100.078,0.0005517
5.07,71.0073,15.099,100.079,0.0021138
5.12,71.5074,15.099,100.079,0.0008272
5.17,72.0075,15.099,100.079,-0.0008730
5.22,72.5076,15.099,100.08,0.0016534
5.27,73.0077,15.099,100.08,0.0013779
5.32,73.5078,15.099,100.081,-0.0008721
5.37,74.0079,15.099,100.081,0.0005044
5.42,74.5079,15.1,100.082,0.0017427
5.47,75.008,15.1,100.082,-0.0004586
5.52,75.5081,15.1,100.082,-0.0001376
5.57,76.0082,15.1,100.082,0.0014673
5.62,76.5083,15.1,100.083,0.0011457
5.67,77.0084,15.1,100.083,-0.0014205
5.72,77.5085,15.1,100.084,0.0017868
5.77,78.0086,15.1,100.085,0.0018332
5.82,78.5087,15.1,100.085,-0.0001833
5.87,79.0088,15.1,100.085,0.0005040
5.92,79.5088,15.1,100.086,0.0017872
5.97,80.0089,15.1,100.086,0.0001833
6.02,80.509,15.1,100.086,0.0005498
6.07,81.0091,15.1,100.087,0.0011456
6.12,81.5092,15.1,100.087,0.0010536
6.17,82.0093,15.1,100.087,-0.0005959
6.22,82.5094,15.1,100.087,0.0012371
6.27,83.0095,15.101,100.088,0.0018788
6.32,83.5096,15.101,100.088,-0.0006417
6.37,84.0096,15.101,100.088,0.0007331
6.42,84.5097,15.101,100.088,0.0018324
6.47,85.0098,15.101,100.089,0.0009158
6.52,85.5099,15.101,100.089,-0.0005037
6.58,86.01,15.101,100.09,0.0014653
6.63,86.5101,15.101,100.09,0.0011447
6.68,87.0102,15.101,100.09,-0.0000458
6.73,87.5103,15.101,100.091,0.0012818
6.78,88.0104,15.101,100.091,0.0012364
6.83,88.5104,15.101,100.091,-0.0006868
6.88,89.0105,15.101,100.091,0.0007785
6.93,89.5106,15.101,100.092,0.0018769
6.98,90.0107,15.101,100.092,-0.0005034
7.03,90.5108,15.101,100.092,0.0001831
7.08,91.0109,15.101,100.092,0.0013272
7.13,91.511,15.101,100.093,0.0005949
7.18,92.0111,15.101,100.093,-0.0016930
7.23,92.5112,15.101,100.093,0.0010066
7.28,93.0113,15.101,100.094,0.0013730
7.33,93.5113,15.101,100.094,-0.0011890
7.38,94.0114,15.101,100.094,0.0001372
7.43,94.5115,15.102,100.094,0.0010977
7.48,95.0116,15.102,100.095,-0.0000915
7.53,95.5117,15.101,100.094,-0.0001830
7.58,96.0118,15.102,100.095,0.0013719
7.63,96.5119,15.102,100.095,0.0003202
7.68,97.012,15.102,100.095,-0.0006860
7.73,97.5121,15.102,100.095,0.0007777
7.78,98.0121,15.102,100.095,0.0008692
7.83,98.5122,15.102,100.095,0.0000916
7.88,99.0123,15.102,100.095,-0.0005948
7.93,99.5124,15.102,100.095,0.0014188
7.98,100.013,15.102,100.096,-0.0005495
8.03,100.513,15.102,100.095,0.0000458
8.08,101.013,15.102,100.096,0.0005954
8.13,101.513,15.102,100.096,0.0003666
8.18,102.013,15.102,100.096,-0.0006413
8.23,102.513,15.102,100.096,0.0007332
8.28,103.013,15.102,100.096,0.0011003
8.33,103.513,15.102,100.096,-0.0011923
8.38,104.013,15.102,100.096,0.0007791
8.43,104.513,15.102,100.096,0.0016493
8.48,105.013,15.102,100.097,-0.0016951
8.53,105.513,15.102,100.096,0.0001375
8.58,106.014,15.102,100.096,0.0007325
8.63,106.514,15.102,100.097,-0.0007325
8.68,107.014,15.102,100.096,-0.0020146
8.73,107.514,15.102,100.096,0.0000458
8.78,108.014,15.102,100.096,0.0008697
8.83,108.514,15.102,100.096,-0.0011904
8.88,109.014,15.102,100.096,0.0003663
8.93,109.514,15.102,100.096,0.0006410
8.98,110.014,15.102,100.096,-0.0012363
9.03,110.514,15.102,100.096,0.0006411
9.08,111.014,15.102,100.096,0.0010991
9.13,111.515,15.102,100.097,0.0005953
9.18,112.015,15.102,100.096,-0.0005499
9.23,112.515,15.102,100.096,0.0008247
9.28,113.015,15.102,100.097,0.0006872
9.33,113.515,15.102,100.097,-0.0021988
9.38,114.015,15.102,100.096,-0.0000458
9.43,114.515,15.102,100.096,0.0008702
9.48,115.015,15.102,100.097,0.0000458
9.53,115.515,15.102,100.096,-0.0014657
9.58,116.015,15.102,100.096,0.0010993
9.63,116.515,15.102,100.097,-0.0005038
9.68,117.016,15.102,100.096,-0.0016946
9.73,117.516,15.102,100.095,0.0009619
9.78,118.016,15.102,100.096,0.0009160
9.83,118.516,15.102,100.096,-0.0011909
9.88,119.016,15.102,100.095,-0.0005956
9.93,119.516,15.102,100.096,0.0009625
9.98,120.016,15.102,100.096,-0.0002750
10.03,120.516,15.102,100.095,-0.0014210
10.08,121.016,15.102,100.095,0.0007333
10.13,121.516,15.102,100.095,-0.0005043
10.18,122.016,15.102,100.095,-0.0008707
10.23,122.517,15.102,100.094,0.0005041
10.28,123.017,15.102,100.095,0.0003209
10.33,123.517,15.102,100.095,-0.0007797
10.38,124.017,15.101,100.094,-0.0009631
10.43,124.517,15.102,100.094,0.0005503
10.48,125.017,15.102,100.094,-0.0001834
10.53,125.517,15.101,100.094,-0.0011014
10.58,126.017,15.101,100.094,0.0008714
10.63,126.517,15.101,100.094,-0.0007339
10.68,127.017,15.101,100.093,-0.0011929
10.73,127.517,15.101,100.093,0.0006883
10.78,128.018,15.101,100.094,0.0004127
10.83,128.518,15.101,100.093,-0.0022492
10.88,129.018,15.101,100.092,0.0005508
10.93,129.518,15.101,100.093,0.0007343
10.98,130.018,15.101,100.093,-0.0016521
11.03,130.518,15.101,100.092,-0.0005968
11.08,131.018,15.101,100.092,0.0013769
11.13,131.518,15.101,100.093,-0.0000918
11.18,132.018,15.101,100.092,-0.0004591
11.23,132.518,15.101,100.092,0.0010099
11.28,133.018,15.101,100.093,-0.0000459
11.33,133.518,15.101,100.092,-0.0013305
11.38,134.019,15.101,100.092,-0.0003212
11.43,134.519,15.101,100.092,0.0004129
11.48,135.019,15.101,100.092,-0.0011927
11.53,135.519,15.101,100.092,-0.0003209
11.58,136.019,15.101,100.092,0.0007789
11.63,136.519,15.101,100.092,-0.0008698
11.68,137.019,15.101,100.091,-0.0012814
11.73,137.519,15.101,100.091,0.0007777
11.78,138.019,15.101,100.091,0.0002741
11.83,138.519,15.101,100.091,-0.0015536
11.88,139.019,15.101,100.09,0.0001370
11.93,139.52,15.101,100.09,0.0002738
11.98,140.02,15.101,100.09,-0.0014596
12.03,140.52,15.101,100.089,-0.0021864
12.08,141.02,15.101,100.089,0.0003184
12.13,141.52,15.101,100.088,-0.0016371
12.18,142.02,15.1,100.087,-0.0024512
12.23,142.52,15.1,100.086,-0.0009970
12.28,143.02,15.1,100.086,-0.0023542
12.33,143.52,15.1,100.084,-0.0030778
12.38,144.02,15.1,100.083,-0.0016290
12.43,144.52,15.1,100.082,-0.0011773
12.48,145.021,15.1,100.081,-0.0024010
12.53,145.521,15.099,100.08,-0.0029466
12.57,146.021,15.099,100.079,-0.0010894
12.62,146.521,15.099,100.078,-0.0021373
12.67,147.021,15.099,100.076,-0.0031412
12.72,147.521,15.099,100.075,-0.0012771
12.77,148.021,15.099,100.075,-0.0021928
12.82,148.521,15.098,100.073,-0.0032467
12.87,149.021,15.098,100.072,-0.0018324
12.92,149.521,15.098,100.071,-0.0005502
12.97,150.021,15.098,100.071,-0.0026630
13.02,150.522,15.098,100.069,-0.0019302
13.07,151.022,15.098,100.069,-0.0008740
13.12,151.522,15.098,100.068,-0.0017947
13.17,152.022,15.097,100.067,-0.0028551
13.22,152.522,15.097,100.066,-0.0010133
13.28,153.022,15.097,100.066,-0.0011060
13.33,153.522,15.097,100.065,-0.0023502
13.38,154.022,15.097,100.064,-0.0013825
13.43,154.522,15.097,100.063,-0.0002304
13.48,155.022,15.097,100.063,-0.0022576
13.53,155.522,15.097,100.061,-0.0014738
13.58,156.023,15.096,100.061,-0.0005066
13.63,156.523,15.096,100.06,-0.0015646
13.68,157.023,15.096,100.059,-0.0022083
13.73,157.523,15.096,100.058,-0.0011958
13.78,158.023,15.096,100.058,-0.0008734
13.83,158.523,15.096,100.057,-0.0022059
13.88,159.023,15.096,100.056,-0.0008729
13.93,159.523,15.096,100.055,-0.0011026
13.98,160.023,15.095,100.054,-0.0039037
14.03,160.523,15.095,100.053,-0.0012393
14.08,161.023,15.095,100.053,-0.0004131
14.13,161.523,15.095,100.052,-0.0029838
14.18,162.024,15.095,100.051,-0.0022967
14.23,162.524,15.095,100.05,-0.0008265
14.28,163.024,15.095,100.05,-0.0006427
14.33,163.524,15.095,100.049,-0.0021569
14.38,164.024,15.095,100.048,-0.0002753
14.43,164.524,15.094,100.048,-0.0008718
14.48,165.024,15.094,100.046,-0.0029817
14.53,165.524,15.094,100.045,-0.0017885
14.58,166.024,15.094,100.045,-0.0000917
14.63,166.524,15.094,100.044,-0.0018783
14.68,167.024,15.094,100.043,-0.0013285
14.73,167.525,15.094,100.043,-0.0009610
14.78,168.025,15.094,100.042,-0.0021964
14.83,168.525,15.093,100.041,-0.0035698
14.88,169.025,15.093,100.039,-0.0010060
14.93,169.525,15.093,100.039,-0.0011432
14.98,170.025,15.093,100.038,-0.0025148
15.03,170.525,15.093,100.036,-0.0017375
15.08,171.025,15.093,100.036,-0.0010062
15.13,171.525,15.093,100.035,-0.0024696
15.18,172.025,15.092,100.033,-0.0036603
15.23,172.525,15.092,100.032,-0.0014645
15.28,173.026,15.092,100.031,-0.0032964
15.33,173.526,15.092,100.03,-0.0038472
15.38,174.026,15.092,100.028,-0.0014659
15.43,174.526,15.091,100.028,-0.0009622
15.48,175.026,15.091,100.026,-0.0044475
15.53,175.526,15.091,100.025,-0.0015582
15.58,176.026,15.091,100.025,-0.0014213
15.63,176.526,15.091,100.023,-0.0044467
15.68,177.026,15.091,100.021,-0.0033012
15.73,177.526,15.09,100.021,-0.0012837
15.78,178.026,15.09,100.019,-0.0021099
15.83,178.527,15.09,100.018,-0.0027510
15.88,179.027,15.09,100.017,-0.0016037
15.93,179.527,15.09,100.016,-0.0030242
15.98,180.027,15.089,100.014,-0.0042621
16.03,180.527,15.089,100.013,-0.0021077
16.08,181.027,15.089,100.012,-0.0020165
16.13,181.527,15.089,100.011,-0.0038963
16.18,182.027,15.089,100.009,-0.0025202
16.23,182.527,15.088,100.008,-0.0011454
16.28,183.027,15.088,100.007,-0.0031617
16.33,183.527,15.088,100.005,-0.0033914
16.38,184.028,15.088,100.004,-0.0020173
16.43,184.528,15.088,100.003,-0.0028865
16.48,185.028,15.087,100.001,-0.0039413
16.53,185.528,15.087,99.999,-0.0023827
16.58,186.028,15.087,99.998,-0.0022923
16.63,186.528,15.087,99.997,-0.0039432
16.68,187.028,15.086,99.995,-0.0027511
16.73,187.528,15.086,99.994,-0.0015593
16.78,188.028,15.086,99.992,-0.0029349
16.83,188.528,15.086,99.99,-0.0037139
16.88,189.028,15.086,99.989,-0.0025679
16.93,189.528,15.085,99.988,-0.0025213
16.98,190.029,15.085,99.986,-0.0034382
17.03,190.529,15.085,99.984,-0.0032997
17.08,191.029,15.085,99.983,-0.0018786
17.13,191.529,15.084,99.981,-0.0049931
17.18,192.029,15.084,99.98,-0.0028396
17.23,192.529,15.084,99.978,-0.0021526
17.28,193.029,15.084,99.977,-0.0030697
17.33,193.529,15.083,99.975,-0.0045812
17.38,194.029,15.083,99.973,-0.0021534
17.43,194.529,15.083,99.972,-0.0024290
17.48,195.029,15.083,99.97,-0.0044913
17.53,195.53,15.083,99.969,-0.0027039
17.58,196.03,15.082,99.967,-0.0031613
17.63,196.53,15.082,99.965,-0.0044913
17.68,197.03,15.082,99.963,-0.0034382
17.73,197.53,15.081,99.962,-0.0027492
17.78,198.03,15.081,99.96,-0.0036657
17.83,198.53,15.081,99.958,-0.0038962
17.88,199.03,15.081,99.957,-0.0026576
17.93,199.53,15.081,99.955,-0.0049038
17.98,200.03,15.08,99.953,-0.0046754
18.03,200.53,15.08,99.951,-0.0028881
18.08,201.031,15.08,99.95,-0.0031631
18.13,201.531,15.079,99.948,-0.0045851
18.18,202.031,15.079,99.946,-0.0026140
18.23,202.531,15.079,99.944,-0.0031173
18.28,203.031,15.079,99.942,-0.0041247
18.33,203.531,15.078,99.94,-0.0041705
18.38,204.031,15.078,99.939,-0.0028857
18.43,204.531,15.078,99.937,-0.0041686
18.48,205.031,15.077,99.935,-0.0042163
18.53,205.531,15.077,99.933,-0.0027490
18.58,206.031,15.077,99.932,-0.0037122
18.63,206.532,15.077,99.929,-0.0046275
18.68,207.032,15.076,99.927,-0.0043989
18.73,207.532,15.076,99.926,-0.0027943
18.78,208.032,15.076,99.924,-0.0044455
18.83,208.532,15.075,99.922,-0.0038937
18.88,209.032,15.075,99.92,-0.0029770
18.93,209.532,15.075,99.918,-0.0053114
18.98,210.032,15.075,99.916,-0.0045809
19.03,210.532,15.074,99.914,-0.0030234
19.08,211.032,15.074,99.912,-0.0044446
19.13,211.532,15.074,99.91,-0.0052685
19.18,212.033,15.073,99.908,-0.0034818
19.23,212.533,15.073,99.906,-0.0035273
19.28,213.033,15.073,99.904,-0.0047178
19.33,213.533,15.072,99.902,-0.0037116
19.38,214.033,15.072,99.9,-0.0029793
19.43,214.533,15.072,99.898,-0.0052255
19.48,215.033,15.072,99.896,-0.0044897
19.53,215.533,15.071,99.894,-0.0030233
19.58,216.033,15.071,99.892,-0.0047619
19.63,216.533,15.071,99.89,-0.0044884
19.68,217.033,15.07,99.888,-0.0028396
19.73,217.533,15.07,99.886,-0.0044900
19.78,218.034,15.07,99.884,-0.0050871
19.83,218.534,15.069,99.882,-0.0034366
19.88,219.034,15.069,99.88,-0.0029781
19.93,219.534,15.069,99.878,-0.0051319
19.98,220.034,15.069,99.876,-0.0043095
20.03,220.534,15.068,99.874,-0.0028881
20.08,221.034,15.068,99.872,-0.0040348
20.13,221.534,15.068,99.869,-0.0057356
20.18,222.034,15.067,99.867,-0.0034860
20.24,222.534,15.067,99.866,-0.0032569
20.29,223.034,15.067,99.863,-0.0055973
20.34,223.535,15.066,99.86,-0.0036697
20.39,224.035,15.066,99.859,-0.0034388
20.44,224.535,15.066,99.857,-0.0048606
20.49,225.035,15.065,99.854,-0.0050422
20.54,225.535,15.065,99.852,-0.0028873
20.59,226.035,15.065,99.851,-0.0045371
20.64,226.535,15.064,99.848,-0.0049954
20.69,227.035,15.064,99.846,-0.0044443
20.74,227.535,15.064,99.844,-0.0047649
20.79,228.035,15.063,99.842,-0.0053162
20.84,228.535,15.063,99.839,-0.0031625
20.89,229.036,15.063,99.838,-0.0035731
20.94,229.536,15.062,99.836,-0.0057719
20.99,230.036,15.062,99.833,-0.0043985
21.04,230.536,15.062,99.831,-0.0027490
21.09,231.036,15.062,99.829,-0.0050838
21.14,231.536,15.061,99.827,-0.0054537
21.19,232.036,15.061,99.825,-0.0028409
21.24,232.536,15.061,99.823,-0.0037122
21.29,233.036,15.06,99.82,-0.0057734
21.34,233.536,15.06,99.818,-0.0039395
21.39,234.036,15.06,99.816,-0.0040796
21.44,234.537,15.059,99.814,-0.0049940
21.49,235.037,15.059,99.811,-0.0041705
21.54,235.537,15.059,99.81,-0.0033905
21.59,236.037,15.058,99.808,-0.0054054
21.64,236.537,15.058,99.805,-0.0050375
21.69,237.037,15.058,99.803,-0.0034357
21.74,237.537,15.057,99.801,-0.0046236
21.79,238.037,15.057,99.798,-0.0058625
21.84,238.537,15.057,99.796,-0.0037099
21.89,239.037,15.056,99.794,-0.0027930
21.94,239.537,15.056,99.792,-0.0059965
21.99,240.038,15.056,99.789,-0.0041201
22.04,240.538,15.055,99.788,-0.0031593
22.09,241.038,15.055,99.786,-0.0056355
22.14,241.538,15.055,99.783,-0.0048130
22.19,242.038,15.054,99.781,-0.0030256
22.24,242.538,15.054,99.779,-0.0038966
22.29,243.038,15.054,99.777,-0.0057298
22.34,243.538,15.053,99.774,-0.0038515
22.39,244.038,15.053,99.772,-0.0043558
22.44,244.538,15.053,99.77,-0.0045392
22.49,245.038,15.052,99.767,-0.0050871
22.54,245.538,15.052,99.766,-0.0030706
22.59,246.039,15.052,99.764,-0.0048570
22.64,246.539,15.051,99.761,-0.0052704
22.69,247.039,15.051,99.759,-0.0030700
22.74,247.539,15.051,99.757,-0.0046283
22.79,248.039,15.05,99.755,-0.0050839
22.84,248.539,15.05,99.752,-0.0032982
22.89,249.039,15.05,99.751,-0.0037116
22.94,249.539,15.049,99.748,-0.0054970
22.99,250.039,15.049,99.746,-0.0044443
23.04,250.539,15.049,99.744,-0.0033895
23.09,251.039,15.048,99.742,-0.0049931
23.14,251.54,15.048,99.739,-0.0050848
23.19,252.04,15.048,99.737,-0.0035273
23.24,252.54,15.047,99.736,-0.0044884
23.29,253.04,15.047,99.733,-0.0048993
23.34,253.54,15.047,99.731,-0.0050824
23.39,254.04,15.046,99.729,-0.0046233
23.44,254.54,15.046,99.726,-0.0055845
23.49,255.04,15.046,99.724,-0.0050810
23.54,255.54,15.045,99.722,-0.0035224
23.59,256.04,15.045,99.72,-0.0053093
23.64,256.54,15.045,99.717,-0.0048499
23.69,257.041,15.044,99.715,-0.0034799
23.74,257.541,15.044,99.713,-0.0051262
23.79,258.041,15.044,99.71,-0.0057215
23.84,258.541,15.043,99.708,-0.0039377
23.89,259.041,15.043,99.706,-0.0035714
23.94,259.541,15.043,99.703,-0.0063679
23.99,260.041,15.042,99.701,-0.0037109
24.04,260.541,15.042,99.699,-0.0035741
24.09,261.041,15.042,99.697,-0.0051787
24.14,261.541,15.041,99.694,-0.0042148
24.19,262.041,15.041,99.693,-0.0032081
24.24,262.542,15.041,99.691,-0.0041712
24.29,263.042,15.04,99.688,-0.0048562
24.34,263.542,15.04,99.686,-0.0039413
24.39,264.042,15.04,99.684,-0.0039406
24.44,264.542,15.039,99.682,-0.0055433
24.49,265.042,15.039,99.679,-0.0043523
24.54,265.542,15.039,99.677,-0.0036193
24.59,266.042,15.038,99.675,-0.0054965
24.64,266.542,15.038,99.672,-0.0041681
24.69,267.042,15.038,99.67,-0.0034341
24.74,267.542,15.037,99.668,-0.0045356
24.79,268.043,15.037,99.665,-0.0044889
24.84,268.543,15.036,99.663,-0.0038462
24.89,269.043,15.036,99.661,-0.0043025
24.94,269.543,15.036,99.659,-0.0050384
24.99,270.043,15.035,99.656,-0.0040287
25.04,270.543,15.035,99.655,-0.0032062
25.09,271.043,15.035,99.652,-0.0054945
25.14,271.543,15.034,99.649,-0.0043522
25.19,272.043,15.034,99.648,-0.0032985
25.24,272.543,15.034,99.646,-0.0051759
25.29,273.043,15.033,99.643,-0.0043522
25.34,273.543,15.033,99.64,-0.0036172
25.39,274.044,15.033,99.639,-0.0039835
25.44,274.544,15.032,99.636,-0.0057266
25.49,275.044,15.032,99.634,-0.0039865
25.54,275.544,15.032,99.632,-0.0032069
25.59,276.044,15.031,99.63,-0.0049486
25.64,276.544,15.031,99.627,-0.0046288
25.69,277.044,15.031,99.625,-0.0030706
25.74,277.544,15.03,99.623,-0.0049908
25.79,278.044,15.03,99.621,-0.0049908
25.84,278.544,15.03,99.618,-0.0038941
25.89,279.044,15.029,99.616,-0.0042582
25.94,279.545,15.029,99.614,-0.0060440
25.99,280.045,15.029,99.611,-0.0043956
26.04,280.545,15.028,99.609,-0.0035256
26.09,281.045,15.028,99.607,-0.0054956
26.14,281.545,15.028,99.604,-0.0053553
26.19,282.045,15.027,99.602,-0.0038004
26.24,282.545,15.027,99.6,-0.0047161
26.29,283.045,15.027,99.597,-0.0060440
26.34,283.545,15.026,99.595,-0.0041209
26.39,284.045,15.026,99.593,-0.0041209
26.44,284.545,15.026,99.591,-0.0063668
26.49,285.046,15.025,99.588,-0.0035276
26.54,285.546,15.025,99.586,-0.0037567
26.59,286.046,15.025,99.584,-0.0060495
26.64,286.546,15.024,99.581,-0.0050366
26.69,287.046,15.024,99.579,-0.0040293
26.74,287.546,15.023,99.577,-0.0061813
26.79,288.046,15.023,99.574,-0.0047161
26.84,288.546,15.023,99.572,-0.0030661
26.89,289.046,15.022,99.57,-0.0048993
26.94,289.546,15.022,99.567,-0.0066392
26.99,290.046,15.022,99.565,-0.0040729
27.04,290.547,15.021,99.563,-0.0045330
27.09,291.047,15.021,99.56,-0.0050851
27.14,291.547,15.021,99.557,-0.0045347
27.19,292.047,15.02,99.555,-0.0043980
27.24,292.547,15.02,99.553,-0.0060517
27.29,293.047,15.019,99.55,-0.0054079
27.34,293.547,15.019,99.548,-0.0035282
27.39,294.047,15.019,99.546,-0.0049496
27.44,294.547,15.018,99.543,-0.0055454
27.49,295.047,15.018,99.541,-0.0044455
27.54,295.547,15.018,99.539,-0.0045830
27.59,296.048,15.017,99.536,-0.0050395
27.64,296.548,15.017,99.534,-0.0038941
27.69,297.048,15.017,99.532,-0.0038052
27.74,297.548,15.016,99.529,-0.0060931
27.79,298.048,15.016,99.526,-0.0047619
27.84,298.548,15.015,99.524,-0.0033425
27.89,299.048,15.015,99.522,-0.0053084
27.94,299.548,15.015,99.519,-0.0059524
27.99,300.048,15.014,99.517,-0.0040735
28.04,300.548,15.014,99.515,-0.0051711
28.09,301.048,15.014,99.512,-0.0049423
28.14,301.548,15.013,99.509,-0.0051263
28.19,302.049,15.013,99.507,-0.0040751
28.24,302.549,15.013,99.505,-0.0056777
28.29,303.049,15.012,99.502,-0.0056777
28.34,303.549,15.012,99.5,-0.0037990
28.39,304.049,15.011,99.497,-0.0065018
28.44,304.549,15.011,99.494,-0.0047619
28.49,305.049,15.011,99.491,-0.0046211
28.54,305.549,15.01,99.489,-0.0050824
28.59,306.049,15.01,99.486,-0.0055384
28.64,306.549,15.009,99.484,-0.0050338
28.69,307.049,15.009,99.481,-0.0045330
28.74,307.55,15.009,99.479,-0.0068260
28.79,308.05,15.008,99.476,-0.0052656
28.84,308.55,15.008,99.474,-0.0042125
28.89,309.05,15.008,99.471,-0.0068247
28.94,309.55,15.007,99.468,-0.0065018
28.99,310.05,15.007,99.465,-0.0043522
29.04,310.55,15.006,99.463,-0.0056798
29.09,311.05,15.006,99.46,-0.0058150
29.14,311.55,15.005,99.457,-0.0047637
29.19,312.05,15.005,99.455,-0.0054487
29.24,312.55,15.005,99.452,-0.0064137
29.29,313.051,15.004,99.449,-0.0055433
29.34,313.551,15.004,99.447,-0.0051787
29.39,314.051,15.003,99.444,-0.0065078
29.44,314.551,15.003,99.441,-0.0062810
29.49,315.051,15.003,99.438,-0.0046296
29.54,315.551,15.002,99.436,-0.0065995
29.59,316.051,15.002,99.432,-0.0062328
29.64,316.551,15.001,99.43,-0.0045346
29.69,317.051,15.001,99.427,-0.0053114
29.74,317.551,15,99.424,-0.0080172
29.79,318.051,15,99.421,-0.0048993
29.84,318.552,15,99.419,-0.0048535
29.89,319.052,14.999,99.416,-0.0066392
29.94,319.552,14.999,99.413,-0.0055403
29.99,320.052,14.998,99.41,-0.0042125
30.04,320.552,14.998,99.407,-0.0059524
30.09,321.052,14.997,99.404,-0.0056319
30.14,321.552,14.997,99.401,-0.0046703
30.19,322.052,14.997,99.399,-0.0060015
30.24,322.552,14.996,99.395,-0.0072344
30.29,323.052,14.996,99.392,-0.0053571
30.34,323.552,14.995,99.39,-0.0044897
30.39,324.053,14.995,99.387,-0.0063634
30.44,324.553,14.994,99.384,-0.0056349
30.49,325.053,14.994,99.382,-0.0050824
30.54,325.553,14.994,99.379,-0.0068706
30.59,326.053,14.993,99.376,-0.0070513
30.64,326.553,14.993,99.373,-0.0049451
30.69,327.053,14.992,99.37,-0.0063645
30.74,327.553,14.992,99.367,-0.0073260
30.79,328.053,14.991,99.363,-0.0056298
30.84,328.553,14.991,99.361,-0.0065934
30.89,329.053,14.99,99.358,-0.0059948
30.94,329.553,14.99,99.354,-0.0056756
30.99,330.054,14.989,99.352,-0.0048490
31.04,330.554,14.989,99.349,-0.0063609
31.09,331.054,14.988,99.345,-0.0060864
31.14,331.554,14.988,99.342,-0.0047575
31.19,332.054,14.988,99.34,-0.0066355
31.24,332.554,14.987,99.336,-0.0072802
31.29,333.054,14.987,99.333,-0.0051740
31.34,333.554,14.986,99.33,-0.0072319
31.39,334.054,14.986,99.326,-0.0066392
31.44,334.554,14.985,99.323,-0.0052656
31.49,335.054,14.985,99.321,-0.0055861
31.54,335.555,14.984,99.317,-0.0078755
31.59,336.055,14.984,99.314,-0.0063645
31.64,336.555,14.983,99.311,-0.0051740
31.69,337.055,14.983,99.308,-0.0068223
31.74,337.555,14.982,99.304,-0.0065054
31.79,338.055,14.982,99.301,-0.0050366
31.84,338.555,14.981,99.298,-0.0057234
31.89,339.055,14.981,99.295,-0.0076007
31.94,339.555,14.98,99.292,-0.0053571
31.99,340.055,14.98,99.289,-0.0061355
32.04,340.555,14.979,99.285,-0.0079212
32.09,341.056,14.979,99.282,-0.0057234
32.14,341.556,14.978,99.279,-0.0061813
32.19,342.056,14.978,99.275,-0.0076923
32.24,342.556,14.977,99.272,-0.0067308
32.29,343.056,14.977,99.269,-0.0059066
32.34,343.556,14.977,99.266,-0.0068656
32.39,344.056,14.976,99.262,-0.0070931
32.44,344.556,14.975,99.259,-0.0057671
32.49,345.056,14.975,99.256,-0.0063610
32.54,345.556,14.974,99.252,-0.0074593
32.59,346.056,14.974,99.249,-0.0061791
32.64,346.557,14.973,99.246,-0.0070513
32.69,347.057,14.973,99.242,-0.0081960
32.74,347.557,14.972,99.238,-0.0070513
32.79,348.057,14.972,99.235,-0.0056777
32.84,348.557,14.971,99.232,-0.0076007
32.89,349.057,14.971,99.228,-0.0075550
32.94,349.557,14.97,99.224,-0.0061779
32.99,350.057,14.97,99.221,-0.0065910
33.04,350.557,14.969,99.217,-0.0088779
33.09,351.057,14.969,99.213,-0.0068681
33.14,351.557,14.968,99.21,-0.0062729
33.19,352.058,14.968,99.206,-0.0081531
33.24,352.558,14.967,99.203,-0.0071861
33.29,353.058,14.967,99.199,-0.0059982
33.34,353.558,14.966,99.195,-0.0094322
33.39,354.058,14.965,99.191,-0.0084279
33.44,354.558,14.965,99.188,-0.0064103
33.49,355.058,14.964,99.184,-0.0082922
33.54,355.558,14.964,99.18,-0.0084738
33.59,356.058,14.963,99.176,-0.0063221
33.64,356.558,14.962,99.173,-0.0080586
33.69,357.058,14.962,99.169,-0.0084707
33.74,357.558,14.961,99.165,-0.0064995
33.79,358.059,14.961,99.161,-0.0066813
33.84,358.559,14.96,99.157,-0.0084249
33.89,359.059,14.96,99.153,-0.0074606
33.94,359.559,14.959,99.15,-0.0068186
33.99,360.059,14.958,99.146,-0.0090201
34.04,360.559,14.958,99.141,-0.0089744
34.09,361.059,14.957,99.138,-0.0071429
34.14,361.559,14.957,99.134,-0.0084249
34.19,362.059,14.956,99.129,-0.0088370
34.24,362.559,14.955,99.125,-0.0074634
34.29,363.059,14.955,99.122,-0.0078297
34.34,363.56,14.954,99.117,-0.0088321
34.39,364.06,14.953,99.113,-0.0077839
34.44,364.56,14.953,99.109,-0.0074122
34.49,365.06,14.952,99.105,-0.0088337
34.54,365.56,14.952,99.1,-0.0090576
34.59,366.06,14.951,99.097,-0.0075036
34.64,366.56,14.95,99.092,-0.0095609
34.69,367.06,14.95,99.088,-0.0088305
34.74,367.56,14.949,99.084,-0.0077339
34.79,368.06,14.948,99.08,-0.0086491
34.84,368.56,14.948,99.075,-0.0097527
34.89,369.061,14.947,99.07,-0.0080542
34.94,369.561,14.946,99.066,-0.0080586
34.99,370.061,14.946,99.061,-0.0101135
35.04,370.561,14.945,99.057,-0.0088828
35.09,371.061,14.944,99.052,-0.0080586
35.14,371.561,14.944,99.048,-0.0106743
35.19,372.061,14.943,99.043,-0.0092524
35.24,372.561,14.942,99.038,-0.0080128
35.29,373.061,14.942,99.034,-0.0102564
35.34,373.561,14.941,99.029,-0.0098022
35.39,374.061,14.94,99.024,-0.0088403
35.44,374.562,14.939,99.02,-0.0090659
35.49,375.062,14.939,99.015,-0.0103938
35.54,375.562,14.938,99.009,-0.0093864
35.59,376.062,14.937,99.005,-0.0090659
35.64,376.562,14.936,99,-0.0107143
35.69,377.062,14.936,98.995,-0.0103938
35.74,377.562,14.935,98.99,-0.0092033
35.79,378.062,14.934,98.985,-0.0114011
35.84,378.562,14.933,98.98,-0.0104434
35.89,379.062,14.933,98.975,-0.0091575
35.94,379.562,14.932,98.97,-0.0111305
35.99,380.063,14.931,98.964,-0.0104435
36.04,380.563,14.93,98.959,-0.0100330
36.09,381.063,14.929,98.954,-0.0100330
36.14,381.563,14.929,98.948,-0.0117216
36.19,382.063,14.928,98.942,-0.0108059
36.25,382.563,14.927,98.937,-0.0097985
36.3,383.063,14.926,98.931,-0.0120879
36.35,383.563,14.925,98.925,-0.0114011
36.4,384.063,14.924,98.92,-0.0102050
36.45,384.563,14.923,98.914,-0.0123101
36.5,385.063,14.923,98.908,-0.0128615
36.54,385.563,14.922,98.902,-0.0111182
36.59,386.064,14.921,98.896,-0.0113491
36.64,386.564,14.92,98.89,-0.0144556
36.69,387.064,14.919,98.883,-0.0128111
36.74,387.564,14.918,98.877,-0.0117587
36.79,388.064,14.917,98.871,-0.0139575
36.84,388.564,14.916,98.864,-0.0127584
36.89,389.064,14.915,98.858,-0.0119920
36.94,389.564,14.914,98.851,-0.0155678
36.99,390.064,14.913,98.844,-0.0138736
37.04,390.564,14.912,98.837,-0.0123101
37.09,391.064,14.911,98.83,-0.0139652
37.14,391.565,14.91,98.823,-0.0144741
37.19,392.065,14.909,98.816,-0.0133773
37.24,392.565,14.908,98.809,-0.0135531
37.29,393.065,14.907,98.802,-0.0148352
37.34,393.565,14.905,98.794,-0.0151474
37.39,394.065,14.904,98.787,-0.0145604
37.44,394.565,14.903,98.779,-0.0163919
37.49,395.065,14.902,98.77,-0.0164317
37.54,395.565,14.901,98.762,-0.0152846
37.59,396.065,14.899,98.755,-0.0169290
37.64,396.565,14.898,98.746,-0.0184880
37.69,397.066,14.897,98.737,-0.0160567
37.74,397.566,14.896,98.729,-0.0169779
37.79,398.066,14.894,98.72,-0.0179780
37.84,398.566,14.893,98.71,-0.0186642
37.89,399.066,14.891,98.701,-0.0181319
37.94,399.566,14.89,98.692,-0.0208600
37.99,400.066,14.888,98.681,-0.0205015
38.04,400.566,14.887,98.671,-0.0194526
38.09,401.066,14.885,98.661,-0.0211880
38.14,401.566,14.884,98.651,-0.0205128
38.19,402.066,14.882,98.64,-0.0205128
38.24,402.567,14.881,98.63,-0.0216496
38.29,403.067,14.879,98.619,-0.0230185
38.34,403.567,14.877,98.607,-0.0221987
38.39,404.067,14.876,98.596,-0.0223901
38.44,404.567,14.874,98.584,-0.0252885
38.49,405.067,14.872,98.572,-0.0245421
38.54,405.567,14.87,98.56,-0.0245879
38.59,406.067,14.868,98.547,-0.0262363
38.64,406.567,14.866,98.534,-0.0270913
38.69,407.067,14.864,98.521,-0.0256269
38.74,407.567,14.862,98.508,-0.0271321
38.79,408.068,14.86,98.495,-0.0261905
38.84,408.568,14.858,98.481,-0.0268920
38.89,409.068,14.856,98.468,-0.0275641
38.94,409.568,14.854,98.454,-0.0279000
38.99,410.068,14.852,98.44,-0.0283726
39.04,410.568,14.85,98.426,-0.0290591
39.09,411.068,14.848,98.411,-0.0294952
39.14,411.568,14.845,98.396,-0.0303127
39.19,412.068,14.843,98.381,-0.0311413
39.24,412.568,14.841,98.365,-0.0321298
39.29,413.068,14.838,98.349,-0.0324497
39.34,413.568,14.836,98.333,-0.0333303
39.39,414.069,14.833,98.316,-0.0340348
39.44,414.569,14.831,98.299,-0.0350347
39.49,415.069,14.828,98.281,-0.0360801
39.54,415.569,14.825,98.262,-0.0375114
39.59,416.069,14.822,98.243,-0.0387569
39.64,416.569,14.819,98.224,-0.0397623
39.69,417.069,14.816,98.204,-0.0411335
39.74,417.569,14.813,98.183,-0.0428937
39.79,418.069,14.81,98.161,-0.0445612
39.84,418.569,14.806,98.138,-0.0453173
39.89,419.069,14.803,98.115,-0.0464148
39.94,419.57,14.799,98.092,-0.0476408
39.99,420.07,14.796,98.068,-0.0491676
40.04,420.57,14.792,98.042,-0.0510344
40.09,421.07,14.788,98.017,-0.0531136
40.14,421.57,14.784,97.989,-0.0556319
40.19,422.07,14.78,97.961,-0.0579530
40.24,422.57,14.775,97.932,-0.0608974
40.29,423.07,14.771,97.901,-0.0635989
40.34,423.57,14.766,97.868,-0.0662546
40.39,424.07,14.761,97.835,-0.0689765
40.44,424.57,14.755,97.799,-0.0747435
40.49,425.071,14.75,97.761,-0.0794581
40.54,425.571,14.744,97.722,-0.0836537
40.59,426.071,14.737,97.68,-0.0882755
40.64,426.571,14.73,97.635,-0.0916621
40.69,427.071,14.724,97.59,-0.0976746
40.74,427.571,14.716,97.54,-0.1067370
40.79,428.071,14.707,97.483,-0.1211100
40.84,428.571,14.698,97.421,-0.1286160
40.89,429.071,14.688,97.354,-0.1384770
40.94,429.571,14.678,97.284,-0.1411560
40.99,430.071,14.667,97.214,-0.1447430
41.04,430.572,14.656,97.141,-0.1501000
41.09,431.072,14.644,97.065,-0.1592360
41.14,431.572,14.633,96.988,-0.1532050
41.19,432.072,14.621,96.911,-0.1568680
41.24,432.572,14.609,96.83,-0.1602600
41.29,433.072,14.597,96.75,-0.1654010
41.34,433.572,14.584,96.665,-0.1684370
41.39,434.072,14.571,96.578,-0.1764280
41.44,434.572,14.557,96.487,-0.1933660
41.49,435.072,14.543,96.39,-0.2012070
41.54,435.572,14.527,96.289,-0.2073800
41.59,436.073,14.511,96.179,-0.2240400
41.64,436.573,14.493,96.06,-0.2472120
41.69,437.073,14.474,95.935,-0.2545710
41.74,437.573,14.455,95.807,-0.2483540
41.79,438.073,14.435,95.677,-0.2663780
41.84,438.573,14.414,95.535,-0.2955530
41.89,439.073,14.389,95.372,-0.3421480
41.94,439.573,14.363,95.198,-0.3551740
41.99,440.073,14.334,95.006,-0.3938520
42.04,440.573,14.303,94.8,-0.4055910
42.09,441.073,14.271,94.591,-0.4308230
42.14,441.573,14.237,94.367,-0.4399990
42.19,442.074,14.203,94.138,-0.4819370
42.24,442.574,14.166,93.893,-0.4886340
42.29,443.074,14.128,93.64,-0.5085220
42.34,443.574,14.088,93.377,-0.5308500
42.39,444.074,14.046,93.097,-0.5658430
42.44,444.574,14.002,92.809,-0.5767150
42.49,445.074,13.957,92.506,-0.6081810
42.54,445.574,13.909,92.188,-0.6406110
42.59,446.074,13.854,91.826,-0.7327530
42.64,446.574,13.798,91.452,-0.7173350
42.69,447.074,13.741,91.075,-0.7344110
42.74,447.575,13.685,90.704,-0.7607510
42.79,448.075,13.626,90.315,-0.7691740
42.84,448.575,13.562,89.894,-0.8065210
42.89,449.075,13.499,89.474,-0.8140620
42.94,449.575,13.437,89.059,-0.8283030
42.99,450.075,13.375,88.648,-0.7789640
43.04,450.575,13.314,88.249,-0.8285260
43.09,451.075,13.249,87.813,-0.8728020
43.14,451.575,13.177,87.338,-0.9587130
43.19,452.075,13.1,86.829,-1.02393
43.24,452.575,13.018,86.286,-1.07513
43.29,453.076,12.935,85.736,-1.11067
43.34,453.576,12.848,85.156,-1.15667
43.4,454.076,12.757,84.552,-1.17465
43.45,454.576,12.665,83.946,-1.26835
43.5,455.076,12.566,83.289,-1.3194
43.55,455.576,12.467,82.636,-1.31899
43.6,456.076,12.363,81.944,-1.43294
43.65,456.576,12.253,81.217,-1.52168
43.7,457.076,12.14,80.467,-1.42807
43.75,457.576,12.028,79.721,-1.56926
43.8,458.076,11.907,78.919,-1.63477
43.85,458.577,11.784,78.105,-1.70506
43.9,459.077,11.653,77.24,-1.7652
43.95,459.577,11.521,76.36,-1.78748
44,460.077,11.381,75.437,-1.878
44.05,460.577,11.242,74.513,-1.91731
44.1,461.077,11.094,73.53,-2.0071
44.15,461.577,10.941,72.519,-2.04995
44.2,462.077,10.783,71.47,-2.06776
44.25,462.577,10.622,70.406,-2.01681
44.3,463.077,10.459,69.322,-2.29982
44.35,463.577,10.284,68.163,-2.27748
44.4,464.078,10.11,67.011,-2.4092
44.45,464.578,9.928,65.805,-2.42303
44.5,465.078,9.739,64.554,-2.56822
44.55,465.578,9.547,63.279,-2.55286
44.6,466.078,9.354,62,-2.52936
44.65,466.578,9.156,60.689,-2.57789
44.7,467.078,8.952,59.336,-2.69519
44.75,467.578,8.745,57.963,-2.81106
44.8,468.078,8.531,56.542,-2.82172
44.85,468.578,8.314,55.104,-2.81362
44.9,469.078,8.094,53.645,-2.97397
44.95,469.578,7.873,52.181,-2.8679
45,470.079,7.643,50.657,-3.09729
45.05,470.579,7.41,49.117,-3.12128
45.1,471.079,7.176,47.563,-3.12756
45.14,471.579,6.947,46.048,-3.18053
45.19,472.079,6.71,44.477,-3.09666
45.24,472.579,6.47,42.886,-3.1912
45.29,473.079,6.229,41.284,-3.20178
45.34,473.579,5.985,39.671,-3.1795
45.39,474.079,5.741,38.052,-3.20836
45.44,474.579,5.495,36.424,-3.21841
45.49,475.079,5.253,34.819,-3.2337
45.54,475.58,5.008,33.194,-3.2073
45.59,476.08,4.766,31.589,-3.13008
45.64,476.58,4.526,30,-3.17809
45.69,477.08,4.288,28.419,-3.10056
45.74,477.58,4.053,26.861,-3.06233
45.79,478.08,3.821,25.328,-2.99992
45.84,478.58,3.594,23.823,-2.96902
45.89,479.08,3.371,22.342,-2.89228
45.94,479.58,3.152,20.894,-2.82429
45.99,480.08,2.941,19.491,-2.75323
46.04,480.58,2.735,18.127,-2.67064
46.09,481.081,2.543,16.853,-2.55082
46.14,481.581,2.352,15.587,-2.45025
46.19,482.081,2.169,14.379,-2.35817
46.24,482.581,1.996,13.232,-2.20257
46.29,483.081,1.833,12.147,-2.09037
46.34,483.581,1.679,11.127,-1.94612
46.39,484.081,1.54,10.205,-1.82468
46.44,484.581,1.405,9.313,-1.71637
46.49,485.081,1.28,8.486,-1.5694
46.54,485.581,1.166,7.726,-1.42322
46.59,486.081,1.064,7.052,-1.34764
46.64,486.582,0.9670000,6.413,-1.22113
46.69,487.082,0.8800000,5.835,-1.09063
46.74,487.582,0.8020000,5.315,-0.9868550
46.79,488.082,0.7320000,4.85,-0.8746440
46.84,488.582,0.6700000,4.439,-0.7845630
46.89,489.082,0.6150000,4.077,-0.6876850
46.94,489.582,0.5690000,3.774,-0.5795090
46.99,490.082,0.5280000,3.502,-0.4970750
47.04,490.582,0.4930000,3.27,-0.4241610
47.09,491.082,0.4640000,3.074,-0.3608080
47.14,491.582,0.4390000,2.91,-0.2924330
47.19,492.083,0.4190000,2.775,-0.2421440
47.24,492.583,0.4020000,2.666,-0.1964880
47.29,493.083,0.3890000,2.576,-0.1550540
47.34,493.583,0.3790000,2.509,-0.1120790
47.39,494.083,0.3710000,2.46,-0.0869892
47.44,494.583,0.3660000,2.424,-0.0591649
47.49,495.083,0.3620000,2.4,-0.0443603
47.54,495.583,0.3590000,2.377,-0.0453197
47.59,496.083,0.3550000,2.355,-0.0433337
47.64,496.583,0.3520000,2.334,-0.0390842
47.69,497.083,0.3490000,2.316,-0.0344529
47.74,497.583,0.3470000,2.3,-0.0294941
47.79,498.084,0.3450000,2.287,-0.0249899
47.84,498.584,0.3430000,2.275,-0.0208569
47.89,499.084,0.3420000,2.265,-0.0172154
47.94,499.584,0.3410000,2.258,-0.0145709
47.99,500.084,0.3400000,2.251,-0.0117639
48.04,500.584,0.3390000,2.246,-0.0092604
48.09,501.084,0.3380000,2.242,-0.0074907
48.14,501.584,0.3380000,2.238,-0.0062457
48.19,502.084,0.3370000,2.235,-0.0047258
48.24,502.584,0.3370000,2.233,-0.0040825
48.29,503.084,0.3370000,2.231,-0.0034759
48.34,503.585,0.3360000,2.229,-0.0026066
48.39,504.085,0.3360000,2.228,-0.0024537
48.44,504.585,0.3360000,2.227,-0.0019014
48.49,505.085,0.3360000,2.226,-0.0020338
48.54,505.585,0.3360000,2.226,-0.0011959
48.59,506.085,0.3360000,2.225,-0.0011869
48.64,506.585,0.3360000,2.225,-0.0007002
48.69,507.085,0.3360000,2.224,-0.0005070
48.74,507.585,0.3360000,2.224,-0.0004599
48.79,508.085,0.3350000,2.224,-0.0005173
48.84,508.585,0.3350000,2.223,-0.0003359
48.89,509.086,0.3350000,2.223,-0.0008203
48.94,509.586,0.3350000,2.223,-0.0006091
48.99,510.086,0.3350000,2.223,-0.0005845
49.04,510.586,0.3350000,2.222,-0.0003756
49.09,511.086,0.3350000,2.222,-0.0001429
49.14,511.586,0.3350000,2.222,-0.0004329
49.19,512.086,0.3350000,2.222,-0.0003029
49.24,512.586,0.3350000,2.222,-0.0004127
49.29,513.086,0.3350000,2.222,-0.0001201
49.34,513.586,0.3350000,2.222,-0.0002229
49.39,514.086,0.3350000,2.221,-0.0002587
49.44,514.587,0.3350000,2.221,0.0001058
49.49,515.087,0.3350000,2.221,-0.0003029
49.54,515.587,0.3350000,2.221,-0.0002671
49.59,516.087,0.3350000,2.221,-0.0001229
49.64,516.587,0.3350000,2.221,-0.0001729
49.69,517.087,0.3350000,2.221,-0.0002770
49.74,517.587,0.3350000,2.221,-0.0004473
49.79,518.087,0.3350000,2.22,-0.0003101
49.84,518.587,0.3350000,2.22,-0.0005474
49.89,519.087,0.3350000,2.22,-0.0002785
49.94,519.587,0.3350000,2.22,-0.0003585
49.99,520.088,0.3350000,2.22,-0.0001957
50.04,520.588,0.3350000,2.22,-0.0004556
50.09,521.088,0.3350000,2.22,-0.0000158
50.14,521.588,0.3350000,2.219,-0.0003330
50.19,522.088,0.3350000,2.219,-0.0004888
50.24,522.588,0.3350000,2.219,-0.0000899
50.29,523.088,0.3350000,2.219,-0.0003858
50.34,523.588,0.3350000,2.219,-0.0001758
50.39,524.088,0.3350000,2.219,-0.0003502
50.44,524.588,0.3350000,2.218,-0.0001759
50.49,525.088,0.3350000,2.218,-0.0004315
50.54,525.588,0.3350000,2.218,-0.0002259
50.59,526.089,0.3350000,2.218,-0.0005515
50.64,526.589,0.3350000,2.218,-0.0003502
50.69,527.089,0.3350000,2.217,-0.0005699
50.74,527.589,0.3350000,2.217,-0.0004913
50.79,528.089,0.3340000,2.217,-0.0002314
50.84,528.589,0.3340000,2.217,-0.0004116
50.89,529.089,0.3340000,2.216,-0.0005534
50.94,529.589,0.3340000,2.216,-0.0009416
50.99,530.089,0.3340000,2.215,-0.0007658
51.04,530.589,0.3340000,2.215,-0.0008313
51.09,531.089,0.3340000,2.215,-0.0009234
51.14,531.59,0.3340000,2.214,-0.0009376
51.19,532.09,0.3340000,2.214,-0.0007984
51.24,532.59,0.3340000,2.214,-0.0008169
51.29,533.09,0.3340000,2.213,-0.0006084
51.34,533.59,0.3340000,2.213,-0.0003999
51.39,534.09,0.3340000,2.212,-0.0008761
51.44,534.59,0.3340000,2.212,-0.0009312
51.49,535.09,0.3340000,2.211,-0.0010505
51.54,535.59,0.3340000,2.211,-0.0009479
51.59,536.09,0.3330000,2.21,-0.0010177
51.64,536.59,0.3330000,2.21,-0.0011663
51.69,537.091,0.3330000,2.209,-0.0011852
51.74,537.591,0.3330000,2.209,-0.0007521
51.79,538.091,0.3330000,2.208,-0.0007346
51.84,538.591,0.3330000,2.208,-0.0008521
51.89,539.091,0.3330000,2.208,-0.0007720
51.94,539.591,0.3330000,2.207,-0.0007375
51.99,540.091,0.3330000,2.207,-0.0010833
52.04,540.591,0.3330000,2.206,-0.0008390
52.09,541.091,0.3330000,2.206,-0.0009433
52.14,541.591,0.3330000,2.205,-0.0006868
52.19,542.091,0.3330000,2.205,-0.0006103
52.24,542.592,0.3330000,2.205,-0.0010453
52.29,543.092,0.3330000,2.204,-0.0008557
52.34,543.592,0.3320000,2.204,-0.0007389
52.39,544.092,0.3320000,2.203,-0.0005967
52.44,544.592,0.3320000,2.203,-0.0007326
52.49,545.092,0.3320000,2.202,-0.0005194
52.54,545.592,0.3320000,2.202,-0.0007240
52.59,546.092,0.3320000,2.202,-0.0008485
52.64,546.592,0.3320000,2.201,-0.0007569
52.69,547.092,0.3320000,2.201,-0.0009601
52.74,547.592,0.3320000,2.201,-0.0007761
52.79,548.093,0.3320000,2.2,-0.0007490
52.84,548.593,0.3320000,2.2,-0.0007077
52.89,549.093,0.3320000,2.199,-0.0006977
52.94,549.593,0.3320000,2.199,-0.0007418
52.99,550.093,0.3320000,2.199,-0.0007312
53.04,550.593,0.3320000,2.198,-0.0006417
53.09,551.093,0.3320000,2.198,-0.0006104
53.14,551.593,0.3320000,2.198,-0.0005815
53.19,552.093,0.3320000,2.197,-0.0009058
53.24,552.593,0.3310000,2.197,-0.0009384
53.29,553.093,0.3310000,2.196,-0.0010526
53.34,553.593,0.3310000,2.196,-0.0009669
53.39,554.094,0.3310000,2.196,-0.0008826
53.44,554.594,0.3310000,2.195,-0.0008805
53.49,555.094,0.3310000,2.195,-0.0007201
53.54,555.594,0.3310000,2.195,-0.0007169
53.59,556.094,0.3310000,2.194,-0.0005899
53.64,556.594,0.3310000,2.194,-0.0004956
53.69,557.094,0.3310000,2.194,-0.0007809
53.74,557.594,0.3310000,2.193,-0.0006142
53.79,558.094,0.3310000,2.193,-0.0008355
53.84,558.594,0.3310000,2.193,-0.0007398
53.89,559.094,0.3310000,2.192,-0.0010983
53.94,559.595,0.3310000,2.192,-0.0009112
53.99,560.095,0.3310000,2.191,-0.0006998
54.04,560.595,0.3310000,2.191,-0.0008612
54.09,561.095,0.3300000,2.191,-0.0008512
54.14,561.595,0.3300000,2.19,-0.0007489
54.19,562.095,0.3300000,2.19,-0.0008536
54.24,562.595,0.3300000,2.189,-0.0008464
54.29,563.095,0.3300000,2.189,-0.0005776
54.34,563.595,0.3300000,2.188,-0.0008935
54.39,564.095,0.3300000,2.188,-0.0008814
54.44,564.595,0.3300000,2.188,-0.0010431
54.49,565.096,0.3300000,2.187,-0.0008986
54.54,565.596,0.3300000,2.187,-0.0008843
54.59,566.096,0.3300000,2.186,-0.0009844
54.64,566.596,0.3300000,2.186,-0.0010660
54.69,567.096,0.3300000,2.185,-0.0010981
54.74,567.596,0.3300000,2.185,-0.0008676
54.79,568.096,0.3300000,2.185,-0.0009987
54.84,568.596,0.3300000,2.184,-0.0009734
54.89,569.096,0.3290000,2.183,-0.0011275
54.94,569.596,0.3290000,2.183,-0.0012278
54.99,570.096,0.3290000,2.182,-0.0010076
55.04,570.597,0.3290000,2.182,-0.0010339
55.09,571.097,0.3290000,2.181,-0.0007890
55.14,571.597,0.3290000,2.181,-0.0012692
55.19,572.097,0.3290000,2.18,-0.0005360
55.24,572.597,0.3290000,2.18,-0.0009147
55.29,573.097,0.3290000,2.179,-0.0011820
55.34,573.597,0.3290000,2.179,-0.0010809
55.39,574.097,0.3290000,2.178,-0.0010892
55.44,574.597,0.3290000,2.177,-0.0011091
55.49,575.097,0.3280000,2.177,-0.0010491
55.54,575.597,0.3280000,2.176,-0.0013980
55.59,576.098,0.3280000,2.175,-0.0013698
55.64,576.598,0.3280000,2.175,-0.0014637
55.69,577.098,0.3280000,2.174,-0.0016485
55.74,577.598,0.3280000,2.173,-0.0015308
55.79,578.098,0.3280000,2.172,-0.0016408
55.84,578.598,0.3280000,2.172,-0.0018330
55.89,579.098,0.3280000,2.171,-0.0016709
55.94,579.598,0.3270000,2.17,-0.0017580
55.99,580.098,0.3270000,2.169,-0.0021311
56.04,580.598,0.3270000,2.168,-0.0016755
56.09,581.098,0.3270000,2.167,-0.0020075
56.14,581.598,0.3270000,2.166,-0.0020819
56.19,582.099,0.3270000,2.165,-0.0023554
56.24,582.599,0.3260000,2.164,-0.0020053
56.29,583.099,0.3260000,2.163,-0.0022706
56.34,583.599,0.3260000,2.162,-0.0022625
56.39,584.099,0.3260000,2.16,-0.0025264
56.44,584.599,0.3260000,2.159,-0.0025799
56.49,585.099,0.3260000,2.158,-0.0028540
56.54,585.599,0.3250000,2.157,-0.0027752
56.59,586.099,0.3250000,2.155,-0.0028943
56.64,586.599,0.3250000,2.154,-0.0029901
56.69,587.099,0.3250000,2.152,-0.0026485
56.74,587.6,0.3250000,2.151,-0.0031673
56.79,588.1,0.3240000,2.149,-0.0029743
56.84,588.6,0.3240000,2.148,-0.0028622
56.89,589.1,0.3240000,2.146,-0.0031064
56.94,589.6,0.3240000,2.144,-0.0033960
56.98,590,0.3230000,2.143,-0.0035605