File: R/rHDPE_App/app/www/Output/TGA/Condensed_Data/Resin20_0__1.csv
0.8300000,30,16.178,100.017,0.0012734
0.9000000,30.5001,16.179,100.019,0.0050331
0.9600000,31.0002,16.179,100.021,0.0052000
1.02,31.5003,16.179,100.023,0.0047412
1.08,32.0004,16.179,100.024,0.0019267
1.13,32.5004,16.18,100.026,-0.0006334
1.19,33.0005,16.18,100.027,0.0049064
1.25,33.5006,16.18,100.028,0.0011907
1.31,34.0007,16.18,100.029,0.0016438
1.36,34.5008,16.18,100.03,0.0038281
1.42,35.0009,16.18,100.031,-0.0003550
1.47,35.501,16.181,100.032,0.0034314
1.53,36.0011,16.181,100.033,0.0007531
1.58,36.5012,16.181,100.034,0.0025979
1.64,37.0013,16.181,100.034,0.0001990
1.69,37.5013,16.181,100.035,0.0019326
1.74,38.0014,16.181,100.036,0.0016778
1.8,38.5015,16.181,100.037,0.0010323
1.85,39.0016,16.181,100.037,0.0026445
1.91,39.5017,16.182,100.038,0.0002442
1.96,40.0018,16.182,100.039,0.0010714
2.01,40.5019,16.182,100.039,0.0021866
2.07,41.002,16.182,100.04,0.0010182
2.12,41.5021,16.182,100.041,0.0015486
2.17,42.0021,16.182,100.042,0.0018850
2.22,42.5022,16.182,100.042,0.0010136
2.28,43.0023,16.182,100.043,0.0011082
2.33,43.5024,16.182,100.043,0.0023581
2.38,44.0025,16.183,100.044,0.0016346
2.43,44.5026,16.183,100.045,0.0009121
2.49,45.0027,16.183,100.046,0.0013904
2.54,45.5028,16.183,100.046,0.0016752
2.59,46.0029,16.183,100.047,0.0011464
2.64,46.5029,16.183,100.048,0.0014785
2.69,47.003,16.183,100.048,0.0018562
2.75,47.5031,16.183,100.049,0.0016162
2.8,48.0032,16.183,100.05,0.0010442
2.85,48.5033,16.184,100.05,0.0012807
2.9,49.0034,16.184,100.051,0.0016100
2.95,49.5035,16.184,100.052,0.0017495
3.01,50.0036,16.184,100.053,0.0015580
3.06,50.5037,16.184,100.053,0.0011320
3.11,51.0038,16.184,100.054,0.0014136
3.16,51.5038,16.184,100.055,0.0015994
3.21,52.0039,16.184,100.055,0.0019263
3.26,52.504,16.185,100.056,0.0010325
3.31,53.0041,16.185,100.057,0.0012664
3.36,53.5042,16.185,100.057,0.0016403
3.42,54.0043,16.185,100.058,0.0015458
3.47,54.5044,16.185,100.059,0.0018253
3.52,55.0045,16.185,100.059,0.0015435
3.57,55.5046,16.185,100.06,0.0013086
3.62,56.0046,16.185,100.061,0.0011206
3.67,56.5047,16.185,100.061,0.0014932
3.72,57.0048,16.185,100.062,0.0014912
3.77,57.5049,16.186,100.063,0.0014900
3.82,58.005,16.186,100.063,0.0017686
3.88,58.5051,16.186,100.064,0.0013023
3.93,59.0052,16.186,100.064,0.0014864
3.98,59.5053,16.186,100.065,0.0016251
4.03,60.0054,16.186,100.066,0.0014835
4.08,60.5054,16.186,100.066,0.0015290
4.13,61.0055,16.186,100.067,0.0015276
4.18,61.5056,16.186,100.068,0.0015732
4.23,62.0057,16.186,100.068,0.0012949
4.28,62.5058,16.187,100.069,0.0012015
4.33,63.0059,16.187,100.069,0.0015711
4.38,63.506,16.187,100.07,0.0010619
4.43,64.0061,16.187,100.071,0.0012001
4.48,64.5062,16.187,100.071,0.0010147
4.53,65.0063,16.187,100.072,0.0011068
4.58,65.5063,16.187,100.072,0.0007375
4.63,66.0064,16.187,100.073,0.0013826
4.68,66.5065,16.187,100.074,0.0006909
4.73,67.0066,16.187,100.074,0.0010593
4.78,67.5067,16.188,100.075,0.0011046
4.83,68.0068,16.188,100.075,0.0011971
4.88,68.5069,16.188,100.076,0.0013806
4.94,69.007,16.188,100.076,0.0011041
4.99,69.5071,16.188,100.077,0.0011040
5.04,70.0071,16.188,100.077,0.0011953
5.09,70.5072,16.188,100.078,0.0010115
5.14,71.0073,16.188,100.078,0.0006895
5.19,71.5074,16.188,100.079,0.0006432
5.24,72.0075,16.188,100.079,0.0007811
5.29,72.5076,16.188,100.079,0.0003674
5.34,73.0077,16.188,100.08,0.0007806
5.39,73.5078,16.188,100.08,0.0006884
5.44,74.0079,16.188,100.081,0.0009634
5.49,74.5079,16.189,100.081,0.0011013
5.54,75.008,16.189,100.082,0.0011464
5.59,75.5081,16.189,100.082,0.0011923
5.64,76.0082,16.189,100.083,0.0008712
5.69,76.5083,16.189,100.083,0.0007795
5.74,77.0084,16.189,100.083,0.0011460
5.79,77.5085,16.189,100.084,0.0007791
5.84,78.0086,16.189,100.084,0.0009623
5.89,78.5087,16.189,100.085,0.0006871
5.94,79.0088,16.189,100.085,0.0006874
5.99,79.5088,16.189,100.085,0.0006872
6.04,80.0089,16.189,100.086,0.0005041
6.09,80.509,16.189,100.086,0.0006873
6.14,81.0091,16.189,100.086,0.0009622
6.19,81.5092,16.189,100.087,0.0008710
6.24,82.0093,16.19,100.087,0.0009165
6.29,82.5094,16.19,100.087,0.0010542
6.34,83.0095,16.19,100.088,0.0006872
6.39,83.5096,16.19,100.088,0.0008703
6.44,84.0096,16.19,100.089,0.0007789
6.49,84.5097,16.19,100.089,0.0005955
6.54,85.0098,16.19,100.089,0.0005954
6.59,85.5099,16.19,100.09,0.0004579
6.64,86.01,16.19,100.09,0.0005953
6.69,86.5101,16.19,100.09,0.0004120
6.74,87.0102,16.19,100.091,0.0005951
6.79,87.5103,16.19,100.091,0.0004118
6.84,88.0104,16.19,100.091,0.0005490
6.89,88.5104,16.19,100.092,0.0006404
6.94,89.0105,16.19,100.092,0.0007777
6.99,89.5106,16.19,100.092,0.0007323
7.04,90.0107,16.19,100.093,0.0009150
7.09,90.5108,16.19,100.093,0.0008235
7.14,91.0109,16.191,100.093,0.0007320
7.19,91.511,16.191,100.093,0.0006863
7.24,92.0111,16.191,100.094,0.0004577
7.29,92.5112,16.191,100.094,0.0001830
7.34,93.0113,16.191,100.094,0.0002746
7.39,93.5113,16.191,100.094,0.0001373
7.44,94.0114,16.191,100.095,0.0001831
7.49,94.5115,16.191,100.095,0.0003660
7.54,95.0116,16.191,100.095,0.0000915
7.59,95.5117,16.191,100.095,0.0003662
7.64,96.0118,16.191,100.096,0.0007785
7.69,96.5119,16.191,100.096,0.0004121
7.74,97.012,16.191,100.096,0.0008700
7.79,97.5121,16.191,100.096,0.0005950
7.84,98.0121,16.191,100.096,0.0005034
7.89,98.5122,16.191,100.096,0.0007780
7.94,99.0123,16.191,100.097,0.0003660
7.99,99.5124,16.191,100.097,0.0000915
8.04,100.013,16.191,100.097,0.0002745
8.09,100.513,16.191,100.097,0.0000915
8.14,101.013,16.191,100.097,0.0000000
8.19,101.513,16.191,100.097,0.0001830
8.24,102.013,16.191,100.098,0.0001373
8.29,102.513,16.191,100.098,0.0003205
8.34,103.013,16.191,100.098,0.0005035
8.39,103.513,16.191,100.098,0.0003205
8.44,104.013,16.191,100.098,0.0003206
8.49,104.513,16.191,100.098,0.0005039
8.54,105.013,16.191,100.098,0.0000916
8.59,105.513,16.191,100.099,0.0005957
8.64,106.014,16.191,100.099,0.0005040
8.69,106.514,16.191,100.099,0.0002748
8.74,107.014,16.191,100.099,0.0001832
8.79,107.514,16.191,100.099,-0.0000458
8.84,108.014,16.191,100.099,0.0000000
8.89,108.514,16.191,100.099,0.0000916
8.94,109.014,16.192,100.099,0.0000458
8.99,109.514,16.192,100.099,0.0002746
9.04,110.014,16.192,100.099,-0.0000000
9.09,110.514,16.192,100.099,-0.0003204
9.14,111.014,16.192,100.099,0.0003205
9.19,111.515,16.192,100.099,0.0000000
9.24,112.015,16.192,100.099,0.0000000
9.29,112.515,16.192,100.099,0.0003206
9.34,113.015,16.192,100.099,0.0000000
9.39,113.515,16.192,100.099,-0.0000916
9.44,114.015,16.192,100.099,-0.0003208
9.49,114.515,16.192,100.099,-0.0002290
9.54,115.015,16.192,100.099,-0.0000916
9.59,115.515,16.192,100.099,-0.0004578
9.64,116.015,16.192,100.099,-0.0001374
9.69,116.515,16.192,100.099,0.0000000
9.74,117.016,16.192,100.099,-0.0001832
9.79,117.516,16.191,100.099,-0.0001374
9.84,118.016,16.191,100.099,-0.0000916
9.89,118.516,16.191,100.099,0.0000000
9.94,119.016,16.191,100.099,-0.0002748
9.99,119.516,16.191,100.099,0.0002749
10.04,120.016,16.191,100.099,-0.0000000
10.09,120.516,16.191,100.099,-0.0000458
10.14,121.016,16.191,100.099,-0.0003209
10.19,121.516,16.191,100.099,-0.0005041
10.24,122.016,16.191,100.099,-0.0002749
10.29,122.517,16.191,100.099,-0.0005502
10.34,123.017,16.191,100.099,-0.0003209
10.39,123.517,16.191,100.099,-0.0003668
10.44,124.017,16.191,100.098,-0.0001376
10.49,124.517,16.191,100.098,-0.0002752
10.54,125.017,16.191,100.098,-0.0002752
10.59,125.517,16.191,100.098,-0.0000917
10.64,126.017,16.191,100.098,0.0000000
10.69,126.517,16.191,100.098,0.0000459
10.74,127.017,16.191,100.098,-0.0001376
10.79,127.517,16.191,100.098,0.0000000
10.84,128.018,16.191,100.098,0.0000000
10.89,128.518,16.191,100.098,-0.0000916
10.94,129.018,16.191,100.098,0.0000459
10.99,129.518,16.191,100.098,-0.0001376
11.04,130.018,16.191,100.098,-0.0002752
11.09,130.518,16.191,100.098,-0.0000918
11.14,131.018,16.191,100.098,0.0000918
11.19,131.518,16.191,100.098,-0.0003670
11.24,132.018,16.191,100.098,0.0000459
11.29,132.518,16.191,100.098,0.0000917
11.34,133.018,16.191,100.098,0.0002751
11.39,133.518,16.191,100.098,0.0000000
11.44,134.019,16.191,100.098,-0.0003668
11.49,134.519,16.191,100.098,0.0002292
11.54,135.019,16.191,100.097,-0.0005496
11.59,135.519,16.191,100.097,-0.0003662
11.64,136.019,16.191,100.097,-0.0005034
11.69,136.519,16.191,100.097,-0.0008694
11.74,137.019,16.191,100.097,-0.0006403
11.79,137.519,16.191,100.097,-0.0003658
11.84,138.019,16.191,100.096,-0.0005942
11.89,138.519,16.191,100.096,-0.0005944
11.94,139.019,16.191,100.096,-0.0004115
11.99,139.52,16.191,100.095,-0.0005027
12.04,140.02,16.191,100.095,-0.0003654
12.09,140.52,16.191,100.095,-0.0007767
12.14,141.02,16.191,100.094,-0.0010500
12.19,141.52,16.191,100.094,-0.0011875
12.24,142.02,16.191,100.093,-0.0013695
12.29,142.52,16.19,100.093,-0.0010041
12.34,143.02,16.19,100.092,-0.0013232
12.39,143.52,16.19,100.092,-0.0014133
12.44,144.02,16.19,100.091,-0.0013664
12.49,144.52,16.19,100.09,-0.0017285
12.54,145.021,16.19,100.089,-0.0018606
12.59,145.521,16.19,100.088,-0.0023555
12.64,146.021,16.19,100.087,-0.0025344
12.69,146.521,16.189,100.086,-0.0026690
12.74,147.021,16.189,100.084,-0.0024882
12.79,147.521,16.189,100.083,-0.0023091
12.84,148.021,16.189,100.082,-0.0024014
12.89,148.521,16.188,100.081,-0.0025404
12.94,149.021,16.188,100.079,-0.0023161
12.98,149.521,16.188,100.078,-0.0023664
13.03,150.021,16.188,100.077,-0.0024624
13.08,150.522,16.188,100.076,-0.0024664
13.13,151.022,16.188,100.075,-0.0024709
13.18,151.522,16.187,100.074,-0.0022462
13.23,152.022,16.187,100.072,-0.0021120
13.28,152.522,16.187,100.071,-0.0022069
13.33,153.022,16.187,100.07,-0.0018408
13.39,153.522,16.187,100.069,-0.0020722
13.44,154.022,16.186,100.068,-0.0017511
13.49,154.522,16.186,100.067,-0.0017971
13.54,155.022,16.186,100.066,-0.0016139
13.59,155.522,16.186,100.065,-0.0019376
13.64,156.023,16.186,100.064,-0.0016610
13.69,156.523,16.186,100.063,-0.0017989
13.74,157.023,16.186,100.062,-0.0018908
13.79,157.523,16.185,100.061,-0.0016144
13.84,158.023,16.185,100.06,-0.0016585
13.89,158.523,16.185,100.059,-0.0017040
13.94,159.023,16.185,100.058,-0.0018871
13.99,159.523,16.185,100.057,-0.0021625
14.04,160.023,16.185,100.057,-0.0018866
14.09,160.523,16.184,100.056,-0.0019779
14.14,161.023,16.184,100.055,-0.0020694
14.19,161.523,16.184,100.054,-0.0018385
14.24,162.024,16.184,100.052,-0.0022523
14.29,162.524,16.184,100.051,-0.0021609
14.34,163.024,16.184,100.05,-0.0021598
14.39,163.524,16.183,100.049,-0.0021126
14.44,164.024,16.183,100.048,-0.0022963
14.49,164.524,16.183,100.047,-0.0020198
14.54,165.024,16.183,100.046,-0.0019737
14.59,165.524,16.183,100.045,-0.0022018
14.64,166.024,16.183,100.044,-0.0023388
14.69,166.524,16.182,100.043,-0.0021556
14.74,167.024,16.182,100.042,-0.0021554
14.79,167.525,16.182,100.041,-0.0022469
14.84,168.025,16.182,100.039,-0.0022921
14.89,168.525,16.182,100.038,-0.0024290
14.94,169.025,16.181,100.037,-0.0021998
14.99,169.525,16.181,100.036,-0.0024748
15.04,170.025,16.181,100.035,-0.0023831
15.09,170.525,16.181,100.033,-0.0026115
15.14,171.025,16.181,100.032,-0.0027480
15.19,171.525,16.18,100.031,-0.0024267
15.24,172.025,16.18,100.03,-0.0025653
15.29,172.525,16.18,100.028,-0.0026569
15.34,173.026,16.18,100.027,-0.0025653
15.39,173.526,16.18,100.026,-0.0028399
15.44,174.026,16.179,100.025,-0.0029317
15.49,174.526,16.179,100.023,-0.0029325
15.54,175.026,16.179,100.022,-0.0028414
15.59,175.526,16.179,100.02,-0.0024748
15.64,176.026,16.179,100.019,-0.0025676
15.69,176.526,16.178,100.018,-0.0025211
15.74,177.026,16.178,100.016,-0.0023384
15.79,177.526,16.178,100.015,-0.0028886
15.84,178.026,16.178,100.014,-0.0029339
15.89,178.527,16.177,100.012,-0.0027964
15.94,179.027,16.177,100.011,-0.0027490
16,179.527,16.177,100.009,-0.0026130
16.05,180.027,16.177,100.008,-0.0026588
16.1,180.527,16.176,100.006,-0.0024753
16.15,181.027,16.176,100.005,-0.0033456
16.2,181.527,16.176,100.003,-0.0031616
16.25,182.027,16.176,100.002,-0.0034808
16.3,182.527,16.175,100,-0.0033437
16.35,183.027,16.175,99.999,-0.0032527
16.4,183.527,16.175,99.997,-0.0029320
16.45,184.028,16.175,99.996,-0.0032518
16.5,184.528,16.174,99.994,-0.0032530
16.55,185.028,16.174,99.992,-0.0029317
16.6,185.528,16.174,99.991,-0.0029312
16.65,186.028,16.174,99.989,-0.0031141
16.7,186.528,16.173,99.988,-0.0032509
16.75,187.028,16.173,99.986,-0.0030215
16.8,187.528,16.173,99.985,-0.0032967
16.85,188.028,16.173,99.983,-0.0032967
16.9,188.528,16.172,99.981,-0.0031593
16.95,189.028,16.172,99.98,-0.0034334
17,189.528,16.172,99.978,-0.0034786
17.05,190.029,16.172,99.976,-0.0032515
17.09,190.529,16.171,99.975,-0.0032530
17.14,191.029,16.171,99.973,-0.0030683
17.19,191.529,16.171,99.971,-0.0030689
17.24,192.029,16.171,99.97,-0.0032524
17.29,192.529,16.17,99.968,-0.0034830
17.34,193.029,16.17,99.966,-0.0031602
17.39,193.529,16.17,99.965,-0.0032057
17.44,194.029,16.169,99.963,-0.0038486
17.49,194.529,16.169,99.961,-0.0037570
17.54,195.029,16.169,99.959,-0.0038472
17.59,195.53,16.169,99.957,-0.0038497
17.64,196.03,16.168,99.955,-0.0038025
17.69,196.53,16.168,99.954,-0.0036192
17.74,197.03,16.168,99.952,-0.0037563
17.79,197.53,16.167,99.95,-0.0036680
17.85,198.03,16.167,99.948,-0.0037587
17.9,198.53,16.167,99.946,-0.0034372
17.95,199.03,16.166,99.944,-0.0038514
18,199.53,16.166,99.942,-0.0038056
18.05,200.03,16.166,99.94,-0.0039431
18.1,200.53,16.165,99.938,-0.0039424
18.15,201.031,16.165,99.937,-0.0039413
18.2,201.531,16.165,99.935,-0.0043534
18.25,202.031,16.165,99.933,-0.0042602
18.3,202.531,16.164,99.931,-0.0041239
18.35,203.031,16.164,99.929,-0.0038472
18.4,203.531,16.164,99.927,-0.0038486
18.45,204.031,16.163,99.925,-0.0038926
18.5,204.531,16.163,99.923,-0.0037546
18.55,205.031,16.163,99.921,-0.0041220
18.6,205.531,16.162,99.919,-0.0038021
18.65,206.031,16.162,99.917,-0.0038021
18.7,206.532,16.162,99.915,-0.0036182
18.75,207.032,16.161,99.913,-0.0039861
18.8,207.532,16.161,99.911,-0.0041694
18.85,208.032,16.161,99.909,-0.0040304
18.9,208.532,16.16,99.907,-0.0042610
18.95,209.032,16.16,99.905,-0.0041235
19,209.532,16.16,99.903,-0.0044884
19.05,210.032,16.159,99.901,-0.0043530
19.1,210.532,16.159,99.899,-0.0043538
19.15,211.032,16.159,99.897,-0.0040796
19.2,211.532,16.158,99.895,-0.0038952
19.25,212.033,16.158,99.893,-0.0041716
19.3,212.533,16.158,99.891,-0.0039413
19.35,213.033,16.157,99.889,-0.0040330
19.4,213.533,16.157,99.886,-0.0037580
19.45,214.033,16.157,99.884,-0.0041258
19.5,214.533,16.156,99.882,-0.0038490
19.55,215.033,16.156,99.88,-0.0041247
19.6,215.533,16.156,99.878,-0.0043080
19.65,216.033,16.155,99.876,-0.0044447
19.7,216.533,16.155,99.874,-0.0042602
19.75,217.033,16.155,99.871,-0.0044455
19.8,217.533,16.154,99.869,-0.0045351
19.85,218.034,16.154,99.867,-0.0045359
19.9,218.534,16.154,99.865,-0.0045371
19.95,219.034,16.153,99.863,-0.0045359
20,219.534,16.153,99.861,-0.0042621
20.05,220.034,16.153,99.858,-0.0044462
20.1,220.534,16.152,99.856,-0.0040349
20.15,221.034,16.152,99.854,-0.0041247
20.2,221.534,16.151,99.852,-0.0046763
20.25,222.034,16.151,99.85,-0.0041258
20.3,222.534,16.151,99.847,-0.0042182
20.35,223.034,16.15,99.845,-0.0045392
20.4,223.535,16.15,99.843,-0.0043080
20.45,224.035,16.15,99.841,-0.0044946
20.5,224.535,16.149,99.839,-0.0043566
20.55,225.035,16.149,99.836,-0.0040807
20.6,225.535,16.149,99.834,-0.0042194
20.65,226.035,16.148,99.832,-0.0041724
20.7,226.535,16.148,99.83,-0.0042171
20.75,227.035,16.148,99.827,-0.0041247
20.8,227.535,16.147,99.825,-0.0045817
20.85,228.035,16.147,99.823,-0.0046275
20.9,228.535,16.146,99.821,-0.0043530
20.95,229.036,16.146,99.818,-0.0043984
21,229.536,16.146,99.816,-0.0048566
21.05,230.036,16.145,99.814,-0.0045808
21.1,230.536,16.145,99.812,-0.0044443
21.15,231.036,16.145,99.81,-0.0044455
21.2,231.536,16.144,99.807,-0.0047641
21.25,232.036,16.144,99.805,-0.0045796
21.3,232.536,16.144,99.803,-0.0047641
21.35,233.036,16.143,99.8,-0.0046258
21.4,233.536,16.143,99.798,-0.0046724
21.45,234.036,16.142,99.796,-0.0047204
21.5,234.537,16.142,99.794,-0.0043518
21.55,235.037,16.142,99.791,-0.0046266
21.6,235.537,16.141,99.789,-0.0045800
21.65,236.037,16.141,99.787,-0.0045817
21.7,236.537,16.141,99.785,-0.0046283
21.75,237.037,16.14,99.782,-0.0046267
21.8,237.537,16.14,99.78,-0.0045350
21.85,238.037,16.139,99.778,-0.0045359
21.9,238.537,16.139,99.775,-0.0046716
21.95,239.037,16.139,99.773,-0.0043056
22,239.537,16.138,99.771,-0.0044896
22.05,240.038,16.138,99.768,-0.0045813
22.1,240.538,16.138,99.766,-0.0046729
22.15,241.038,16.137,99.764,-0.0046258
22.2,241.538,16.137,99.761,-0.0046258
22.25,242.038,16.136,99.759,-0.0045816
22.3,242.538,16.136,99.757,-0.0044892
22.35,243.038,16.136,99.755,-0.0045330
22.4,243.538,16.135,99.752,-0.0047632
22.45,244.038,16.135,99.75,-0.0048993
22.5,244.538,16.135,99.748,-0.0047623
22.55,245.038,16.134,99.745,-0.0048544
22.6,245.538,16.134,99.743,-0.0045342
22.65,246.039,16.133,99.741,-0.0048548
22.7,246.539,16.133,99.738,-0.0046717
22.75,247.039,16.133,99.736,-0.0045829
22.8,247.539,16.132,99.733,-0.0048104
22.85,248.039,16.132,99.731,-0.0048566
22.9,248.539,16.132,99.729,-0.0045804
22.95,249.039,16.131,99.726,-0.0045371
23,249.539,16.131,99.724,-0.0045384
23.05,250.039,16.13,99.722,-0.0045384
23.1,250.539,16.13,99.719,-0.0047204
23.15,251.039,16.13,99.717,-0.0048552
23.2,251.54,16.129,99.714,-0.0047650
23.25,252.04,16.129,99.712,-0.0047174
23.3,252.54,16.128,99.71,-0.0044884
23.35,253.04,16.128,99.707,-0.0047174
23.4,253.54,16.128,99.705,-0.0047161
23.45,254.04,16.127,99.702,-0.0049451
23.5,254.54,16.127,99.7,-0.0048530
23.55,255.04,16.127,99.698,-0.0048076
23.6,255.54,16.126,99.695,-0.0048535
23.65,256.04,16.126,99.693,-0.0047161
23.7,256.54,16.125,99.69,-0.0046703
23.75,257.041,16.125,99.688,-0.0049451
23.8,257.541,16.125,99.685,-0.0048077
23.85,258.041,16.124,99.683,-0.0047636
23.9,258.541,16.124,99.68,-0.0049936
23.95,259.041,16.123,99.678,-0.0049469
24,259.541,16.123,99.675,-0.0049935
24.05,260.041,16.123,99.673,-0.0049496
24.1,260.541,16.122,99.671,-0.0050403
24.15,261.041,16.122,99.668,-0.0048579
24.2,261.541,16.121,99.666,-0.0050412
24.25,262.041,16.121,99.663,-0.0050394
24.3,262.542,16.121,99.661,-0.0049496
24.35,263.042,16.12,99.658,-0.0046729
24.4,263.542,16.12,99.656,-0.0050422
24.45,264.042,16.119,99.653,-0.0050431
24.5,264.542,16.119,99.65,-0.0048122
24.55,265.042,16.118,99.648,-0.0053621
24.6,265.542,16.118,99.645,-0.0047646
24.65,266.042,16.118,99.643,-0.0051740
24.7,266.542,16.117,99.64,-0.0048553
24.75,267.042,16.117,99.638,-0.0048562
24.8,267.542,16.116,99.635,-0.0047619
24.85,268.043,16.116,99.632,-0.0054059
24.9,268.543,16.116,99.63,-0.0052656
24.95,269.043,16.115,99.627,-0.0053094
25,269.543,16.115,99.625,-0.0052178
25.05,270.043,16.114,99.622,-0.0051740
25.1,270.543,16.114,99.619,-0.0053133
25.15,271.043,16.113,99.617,-0.0054487
25.2,271.543,16.113,99.614,-0.0052656
25.25,272.043,16.113,99.611,-0.0052198
25.3,272.543,16.112,99.608,-0.0052227
25.35,273.043,16.112,99.606,-0.0053571
25.4,273.543,16.111,99.603,-0.0050403
25.45,274.044,16.111,99.601,-0.0050384
25.5,274.544,16.11,99.598,-0.0048562
25.55,275.044,16.11,99.595,-0.0052218
25.6,275.544,16.11,99.593,-0.0054059
25.65,276.044,16.109,99.59,-0.0052674
25.7,276.544,16.109,99.587,-0.0049478
25.76,277.044,16.108,99.584,-0.0054975
25.81,277.544,16.108,99.582,-0.0054049
25.86,278.044,16.107,99.579,-0.0054507
25.91,278.544,16.107,99.576,-0.0051740
25.96,279.044,16.106,99.573,-0.0054526
26.01,279.545,16.106,99.571,-0.0052675
26.06,280.045,16.106,99.568,-0.0053571
26.11,280.545,16.105,99.565,-0.0056319
26.16,281.045,16.105,99.562,-0.0054069
26.21,281.545,16.104,99.56,-0.0053143
26.26,282.045,16.104,99.557,-0.0053143
26.31,282.545,16.103,99.554,-0.0055444
26.36,283.045,16.103,99.551,-0.0055433
26.41,283.545,16.102,99.549,-0.0053163
26.46,284.045,16.102,99.546,-0.0054976
26.51,284.545,16.102,99.543,-0.0054976
26.56,285.046,16.101,99.54,-0.0057234
26.61,285.546,16.101,99.537,-0.0057234
26.66,286.046,16.1,99.535,-0.0056351
26.71,286.546,16.1,99.532,-0.0056319
26.76,287.046,16.099,99.529,-0.0057254
26.81,287.546,16.099,99.526,-0.0054975
26.86,288.046,16.098,99.523,-0.0060930
26.91,288.546,16.098,99.52,-0.0056349
26.96,289.046,16.097,99.518,-0.0056340
27.01,289.546,16.097,99.515,-0.0056319
27.06,290.046,16.097,99.512,-0.0059982
27.11,290.547,16.096,99.509,-0.0058608
27.16,291.047,16.096,99.506,-0.0055861
27.21,291.547,16.095,99.504,-0.0058641
27.26,292.047,16.095,99.501,-0.0059098
27.31,292.547,16.094,99.498,-0.0057745
27.36,293.047,16.094,99.495,-0.0060037
27.41,293.547,16.093,99.492,-0.0060931
27.46,294.047,16.093,99.489,-0.0056798
27.51,294.547,16.092,99.486,-0.0061355
27.56,295.047,16.092,99.483,-0.0055892
27.61,295.547,16.091,99.481,-0.0056350
27.66,296.048,16.091,99.478,-0.0057724
27.71,296.548,16.091,99.475,-0.0055403
27.76,297.048,16.09,99.472,-0.0053114
27.81,297.548,16.09,99.469,-0.0055403
27.86,298.048,16.089,99.466,-0.0054945
27.91,298.548,16.089,99.464,-0.0055403
27.96,299.048,16.088,99.461,-0.0054029
28.01,299.548,16.088,99.458,-0.0055433
28.06,300.048,16.087,99.455,-0.0053571
28.11,300.548,16.087,99.452,-0.0054945
28.16,301.048,16.086,99.449,-0.0060003
28.21,301.548,16.086,99.446,-0.0055892
28.26,302.049,16.085,99.444,-0.0055892
28.31,302.549,16.085,99.441,-0.0057255
28.36,303.049,16.084,99.438,-0.0058640
28.41,303.549,16.084,99.435,-0.0059099
28.46,304.049,16.084,99.432,-0.0058150
28.51,304.549,16.083,99.429,-0.0059066
28.56,305.049,16.083,99.426,-0.0057234
28.61,305.549,16.082,99.423,-0.0058181
28.66,306.049,16.082,99.42,-0.0059524
28.71,306.549,16.081,99.417,-0.0057692
28.76,307.049,16.081,99.415,-0.0057671
28.81,307.55,16.08,99.412,-0.0060440
28.86,308.05,16.08,99.409,-0.0058119
28.91,308.55,16.079,99.406,-0.0058118
28.96,309.05,16.079,99.403,-0.0061322
29.01,309.55,16.078,99.4,-0.0059002
29.06,310.05,16.078,99.397,-0.0061299
29.11,310.55,16.077,99.394,-0.0058097
29.16,311.05,16.077,99.391,-0.0058118
29.21,311.55,16.076,99.388,-0.0057234
29.26,312.05,16.076,99.385,-0.0059982
29.31,312.55,16.076,99.382,-0.0062271
29.36,313.051,16.075,99.379,-0.0059088
29.41,313.551,16.075,99.376,-0.0059557
29.46,314.051,16.074,99.373,-0.0062305
29.51,314.551,16.074,99.371,-0.0057713
29.56,315.051,16.073,99.368,-0.0058630
29.61,315.551,16.073,99.365,-0.0055892
29.66,316.051,16.072,99.362,-0.0057234
29.71,316.551,16.072,99.359,-0.0055372
29.76,317.051,16.071,99.356,-0.0057692
29.81,317.551,16.071,99.353,-0.0060897
29.86,318.051,16.07,99.35,-0.0057203
29.91,318.552,16.07,99.347,-0.0060865
29.96,319.052,16.069,99.344,-0.0059927
30.01,319.552,16.069,99.341,-0.0061310
30.06,320.052,16.068,99.338,-0.0062213
30.11,320.552,16.068,99.335,-0.0062202
30.16,321.052,16.067,99.332,-0.0059915
30.21,321.552,16.067,99.329,-0.0060373
30.26,322.052,16.066,99.326,-0.0058097
30.31,322.552,16.066,99.323,-0.0059469
30.36,323.052,16.065,99.32,-0.0062683
30.41,323.552,16.065,99.317,-0.0059949
30.46,324.053,16.064,99.314,-0.0063611
30.51,324.553,16.064,99.311,-0.0064103
30.56,325.053,16.063,99.307,-0.0062305
30.61,325.553,16.063,99.304,-0.0061848
30.66,326.053,16.062,99.301,-0.0061401
30.71,326.553,16.062,99.298,-0.0061870
30.76,327.053,16.061,99.295,-0.0058182
30.81,327.553,16.061,99.292,-0.0061400
30.86,328.053,16.06,99.289,-0.0063680
30.91,328.553,16.06,99.285,-0.0064138
30.96,329.053,16.059,99.282,-0.0063233
31.01,329.553,16.059,99.279,-0.0064161
31.06,330.054,16.058,99.276,-0.0065078
31.11,330.554,16.058,99.273,-0.0068311
31.16,331.054,16.057,99.269,-0.0065561
31.21,331.554,16.057,99.266,-0.0065983
31.26,332.054,16.056,99.263,-0.0067840
31.31,332.554,16.056,99.259,-0.0064654
31.36,333.054,16.055,99.256,-0.0064620
31.41,333.554,16.055,99.253,-0.0066899
31.46,334.054,16.054,99.25,-0.0061378
31.51,334.554,16.054,99.247,-0.0065971
31.56,335.054,16.053,99.243,-0.0065018
31.61,335.555,16.052,99.24,-0.0064983
31.66,336.055,16.052,99.237,-0.0059959
31.71,336.555,16.051,99.233,-0.0065886
31.76,337.055,16.051,99.23,-0.0067270
31.81,337.555,16.05,99.227,-0.0066343
31.86,338.055,16.05,99.223,-0.0069559
31.91,338.555,16.049,99.22,-0.0070055
31.96,339.055,16.049,99.217,-0.0071886
32.01,339.555,16.048,99.213,-0.0071860
32.06,340.055,16.048,99.21,-0.0067791
32.11,340.555,16.047,99.206,-0.0070081
32.16,341.056,16.046,99.203,-0.0070055
32.21,341.556,16.046,99.199,-0.0068261
32.26,342.056,16.045,99.196,-0.0070055
32.31,342.556,16.045,99.193,-0.0066392
32.36,343.056,16.044,99.189,-0.0069139
32.41,343.556,16.044,99.186,-0.0068236
32.46,344.056,16.043,99.182,-0.0066850
32.51,344.556,16.043,99.179,-0.0069139
32.56,345.056,16.042,99.175,-0.0068644
32.61,345.556,16.041,99.172,-0.0070932
32.66,346.056,16.041,99.168,-0.0070945
32.71,346.557,16.04,99.165,-0.0073677
32.76,347.057,16.04,99.161,-0.0071363
32.81,347.557,16.039,99.158,-0.0072318
32.86,348.057,16.039,99.154,-0.0070971
32.91,348.557,16.038,99.151,-0.0073220
32.96,349.057,16.037,99.147,-0.0074621
33.01,349.557,16.037,99.143,-0.0067728
33.06,350.057,16.036,99.14,-0.0070932
33.11,350.557,16.036,99.136,-0.0070487
33.16,351.057,16.035,99.133,-0.0070971
33.21,351.557,16.035,99.129,-0.0069114
33.26,352.058,16.034,99.126,-0.0070043
33.31,352.558,16.033,99.122,-0.0070080
33.36,353.058,16.033,99.119,-0.0068745
33.41,353.558,16.032,99.115,-0.0066898
33.46,354.058,16.032,99.112,-0.0066887
33.51,354.558,16.031,99.108,-0.0067332
33.56,355.058,16.031,99.105,-0.0071009
33.61,355.558,16.03,99.101,-0.0067345
33.66,356.058,16.03,99.098,-0.0070055
33.71,356.558,16.029,99.094,-0.0069139
33.76,357.058,16.028,99.091,-0.0069101
33.81,357.558,16.028,99.087,-0.0069088
33.86,358.059,16.027,99.084,-0.0067703
33.91,358.559,16.027,99.081,-0.0070449
33.96,359.059,16.026,99.077,-0.0069050
34.01,359.559,16.026,99.074,-0.0073651
34.06,360.059,16.025,99.07,-0.0073664
34.11,360.559,16.024,99.067,-0.0074176
34.16,361.059,16.024,99.063,-0.0072344
34.21,361.559,16.023,99.059,-0.0072305
34.26,362.059,16.023,99.056,-0.0074135
34.31,362.559,16.022,99.052,-0.0071886
34.36,363.059,16.022,99.048,-0.0072344
34.41,363.56,16.021,99.045,-0.0075064
34.46,364.06,16.02,99.041,-0.0076007
34.51,364.56,16.02,99.037,-0.0076007
34.56,365.06,16.019,99.034,-0.0077881
34.61,365.56,16.018,99.03,-0.0079212
34.66,366.06,16.018,99.026,-0.0080128
34.71,366.56,16.017,99.022,-0.0079183
34.76,367.06,16.017,99.018,-0.0081044
34.81,367.56,16.016,99.014,-0.0080173
34.86,368.06,16.015,99.01,-0.0080586
34.91,368.56,16.015,99.006,-0.0083333
34.96,369.061,16.014,99.002,-0.0081044
35.01,369.561,16.013,98.997,-0.0081471
35.06,370.061,16.013,98.993,-0.0082830
35.11,370.561,16.012,98.989,-0.0082372
35.16,371.061,16.011,98.985,-0.0083730
35.21,371.561,16.011,98.981,-0.0083761
35.26,372.061,16.01,98.976,-0.0086475
35.31,372.561,16.009,98.972,-0.0086996
35.36,373.061,16.008,98.968,-0.0091982
35.41,373.561,16.008,98.963,-0.0091167
35.46,374.061,16.007,98.959,-0.0092542
35.51,374.562,16.006,98.954,-0.0093000
35.56,375.062,16.006,98.95,-0.0092558
35.61,375.562,16.005,98.945,-0.0094357
35.66,376.062,16.004,98.94,-0.0093440
35.71,376.562,16.003,98.936,-0.0089825
35.76,377.062,16.003,98.931,-0.0095360
35.81,377.562,16.002,98.926,-0.0093969
35.86,378.062,16.001,98.921,-0.0095819
35.91,378.562,16,98.917,-0.0093051
35.96,379.062,15.999,98.912,-0.0093068
36.01,379.562,15.999,98.907,-0.0096665
36.06,380.063,15.998,98.902,-0.0096612
36.11,380.563,15.997,98.897,-0.0098407
36.16,381.063,15.996,98.892,-0.0097349
36.21,381.563,15.995,98.887,-0.0098173
36.26,382.063,15.995,98.882,-0.0098540
36.31,382.563,15.994,98.877,-0.0103140
36.36,383.063,15.993,98.872,-0.0106296
36.41,383.563,15.992,98.867,-0.0103102
36.46,384.063,15.991,98.862,-0.0105383
36.51,384.563,15.99,98.856,-0.0103616
36.56,385.063,15.99,98.851,-0.0108199
36.61,385.563,15.989,98.846,-0.0108279
36.66,386.064,15.988,98.84,-0.0113346
36.71,386.564,15.987,98.834,-0.0114717
36.76,387.064,15.986,98.829,-0.0117066
36.81,387.564,15.985,98.823,-0.0114322
36.86,388.064,15.984,98.817,-0.0117566
36.91,388.564,15.983,98.811,-0.0118895
36.96,389.064,15.982,98.805,-0.0121160
37.01,389.564,15.981,98.799,-0.0124405
37.06,390.064,15.98,98.793,-0.0124885
37.11,390.564,15.979,98.787,-0.0126716
37.16,391.064,15.978,98.78,-0.0129050
37.21,391.565,15.977,98.773,-0.0131410
37.26,392.065,15.976,98.767,-0.0132784
37.31,392.565,15.975,98.76,-0.0136038
37.36,393.065,15.974,98.753,-0.0138329
37.41,393.565,15.973,98.746,-0.0142071
37.46,394.065,15.971,98.739,-0.0142019
37.51,394.565,15.97,98.731,-0.0148810
37.56,395.065,15.969,98.724,-0.0147544
37.61,395.565,15.968,98.716,-0.0149780
37.66,396.065,15.967,98.709,-0.0153014
37.71,396.565,15.965,98.701,-0.0154762
37.76,397.066,15.964,98.693,-0.0159029
37.81,397.566,15.963,98.685,-0.0164009
37.86,398.066,15.961,98.677,-0.0163123
37.91,398.566,15.96,98.668,-0.0166667
37.96,399.066,15.959,98.66,-0.0170330
38.01,399.566,15.957,98.651,-0.0171245
38.06,400.066,15.956,98.643,-0.0180044
38.11,400.566,15.954,98.634,-0.0182302
38.16,401.066,15.953,98.624,-0.0188748
38.21,401.566,15.951,98.615,-0.0192378
38.26,402.066,15.95,98.606,-0.0195584
38.31,402.567,15.948,98.596,-0.0197344
38.36,403.067,15.947,98.586,-0.0201429
38.41,403.567,15.945,98.576,-0.0205053
38.46,404.067,15.943,98.566,-0.0206884
38.51,404.567,15.942,98.555,-0.0209096
38.56,405.067,15.94,98.545,-0.0212260
38.61,405.567,15.938,98.534,-0.0215998
38.66,406.067,15.937,98.523,-0.0217371
38.71,406.567,15.935,98.512,-0.0222863
38.76,407.067,15.933,98.501,-0.0222863
38.81,407.567,15.931,98.49,-0.0227481
38.86,408.068,15.929,98.479,-0.0232059
38.91,408.568,15.927,98.467,-0.0236134
38.96,409.068,15.926,98.455,-0.0239838
39.01,409.568,15.924,98.443,-0.0243914
39.06,410.068,15.922,98.431,-0.0249405
39.11,410.568,15.92,98.418,-0.0256410
39.16,411.068,15.917,98.405,-0.0259520
39.21,411.568,15.915,98.392,-0.0265927
39.26,412.068,15.913,98.379,-0.0270963
39.31,412.568,15.911,98.365,-0.0279608
39.36,413.068,15.909,98.351,-0.0284642
39.41,413.568,15.906,98.337,-0.0290591
39.46,414.069,15.904,98.322,-0.0299743
39.51,414.569,15.902,98.307,-0.0305235
39.56,415.069,15.899,98.292,-0.0310269
39.61,415.569,15.897,98.276,-0.0321134
39.66,416.069,15.894,98.259,-0.0327877
39.71,416.569,15.891,98.243,-0.0339766
39.76,417.069,15.888,98.226,-0.0349763
39.81,417.569,15.886,98.208,-0.0358972
39.86,418.069,15.883,98.19,-0.0369557
39.91,418.569,15.88,98.171,-0.0383489
39.96,419.069,15.876,98.151,-0.0389052
40.01,419.57,15.873,98.132,-0.0404304
40.06,420.07,15.87,98.111,-0.0411862
40.11,420.57,15.866,98.09,-0.0427420
40.16,421.07,15.863,98.068,-0.0438485
40.21,421.57,15.859,98.046,-0.0455170
40.26,422.07,15.856,98.022,-0.0472182
40.31,422.57,15.852,97.998,-0.0488832
40.36,423.07,15.848,97.973,-0.0506224
40.41,423.57,15.843,97.947,-0.0522245
40.46,424.07,15.839,97.921,-0.0540813
40.51,424.57,15.835,97.893,-0.0562420
40.56,425.071,15.83,97.864,-0.0580970
40.61,425.571,15.825,97.835,-0.0599726
40.66,426.071,15.82,97.804,-0.0621683
40.71,426.571,15.815,97.772,-0.0644777
40.76,427.071,15.81,97.738,-0.0693504
40.81,427.571,15.804,97.702,-0.0752973
40.86,428.071,15.797,97.661,-0.0844473
40.91,428.571,15.79,97.617,-0.0864011
40.96,429.071,15.782,97.57,-0.0946429
41.01,429.571,15.774,97.521,-0.1028850
41.06,430.071,15.766,97.468,-0.1058480
41.11,430.572,15.757,97.411,-0.1153850
41.16,431.072,15.747,97.351,-0.1231920
41.21,431.572,15.737,97.288,-0.1265320
41.26,432.072,15.726,97.223,-0.1316320
41.31,432.572,15.715,97.155,-0.1375280
41.36,433.072,15.703,97.081,-0.1481630
41.41,433.572,15.691,97.006,-0.1480800
41.46,434.072,15.678,96.927,-0.1611060
41.51,434.572,15.665,96.843,-0.1710410
41.56,435.072,15.65,96.753,-0.1798260
41.61,435.572,15.635,96.662,-0.1869280
41.66,436.073,15.619,96.562,-0.2045790
41.71,436.573,15.603,96.458,-0.2068450
41.76,437.073,15.585,96.351,-0.2215860
41.81,437.573,15.567,96.238,-0.2282190
41.86,438.073,15.547,96.116,-0.2512380
41.91,438.573,15.526,95.985,-0.2683950
41.96,439.073,15.504,95.848,-0.2765600
42.01,439.573,15.481,95.704,-0.2921870
42.06,440.073,15.456,95.553,-0.3021730
42.11,440.573,15.431,95.398,-0.3138410
42.16,441.073,15.404,95.233,-0.3401130
42.21,441.573,15.376,95.061,-0.3431390
42.26,442.074,15.347,94.881,-0.3643320
42.31,442.574,15.317,94.694,-0.3781360
42.36,443.074,15.286,94.498,-0.3939190
42.41,443.574,15.252,94.291,-0.4313790
42.46,444.074,15.214,94.058,-0.4909840
42.51,444.574,15.174,93.806,-0.5015950
42.56,445.074,15.133,93.553,-0.5011880
42.61,445.574,15.09,93.29,-0.5338750
42.66,446.074,15.045,93.008,-0.5733520
42.71,446.574,14.997,92.714,-0.5836400
42.76,447.074,14.948,92.413,-0.5935270
42.81,447.575,14.897,92.099,-0.6487910
42.86,448.075,14.845,91.773,-0.6347460
42.91,448.575,14.794,91.461,-0.6069790
42.96,449.075,14.747,91.168,-0.6142890
43.01,449.575,14.697,90.858,-0.6394500
43.06,450.075,14.641,90.513,-0.7346890
43.11,450.575,14.58,90.136,-0.7451880
43.16,451.075,14.517,89.746,-0.7834410
43.21,451.575,14.45,89.335,-0.8457720
43.26,452.075,14.381,88.904,-0.8720820
43.31,452.575,14.309,88.462,-0.9056170
43.36,453.076,14.234,87.997,-0.9155790
43.41,453.576,14.159,87.534,-0.9177690
43.46,454.076,14.082,87.06,-0.9387610
43.51,454.576,14.002,86.561,-1.0267
43.56,455.076,13.915,86.024,-1.06138
43.61,455.576,13.824,85.463,-1.111
43.66,456.076,13.732,84.893,-1.13771
43.71,456.576,13.636,84.3,-1.20694
43.76,457.076,13.534,83.67,-1.29606
43.81,457.576,13.429,83.023,-1.33381
43.86,458.076,13.318,82.333,-1.44907
43.91,458.577,13.205,81.636,-1.43807
43.96,459.077,13.085,80.895,-1.50481
44.01,459.577,12.964,80.147,-1.54624
44.06,460.077,12.837,79.361,-1.69583
44.11,460.577,12.7,78.512,-1.72198
44.16,461.077,12.561,77.657,-1.77498
44.21,461.577,12.42,76.781,-1.82336
44.26,462.077,12.271,75.863,-1.82145
44.31,462.577,12.12,74.93,-2.00229
44.36,463.077,11.962,73.954,-1.99092
44.41,463.577,11.797,72.929,-2.09706
44.46,464.078,11.627,71.878,-2.21558
44.51,464.578,11.453,70.808,-2.18843
44.56,465.078,11.273,69.693,-2.37191
44.61,465.578,11.089,68.553,-2.3783
44.66,466.078,10.897,67.368,-2.41714
44.71,466.578,10.702,66.162,-2.41204
44.76,467.078,10.498,64.903,-2.50925
44.81,467.578,10.29,63.616,-2.60706
44.86,468.078,10.079,62.313,-2.66958
44.91,468.578,9.86,60.958,-2.72761
44.96,469.078,9.64,59.599,-2.84346
45.01,469.578,9.407,58.157,-2.85978
45.06,470.079,9.178,56.738,-2.89863
45.11,470.579,8.937,55.251,-3.09414
45.16,471.079,8.691,53.731,-3.00224
45.21,471.579,8.439,52.172,-3.13646
45.26,472.079,8.184,50.597,-3.1277
45.31,472.579,7.925,48.993,-3.23372
45.36,473.079,7.658,47.346,-3.39395
45.41,473.579,7.387,45.668,-3.37754
45.46,474.079,7.117,43.996,-3.4646
45.51,474.579,6.837,42.265,-3.48676
45.56,475.079,6.554,40.521,-3.52833
45.61,475.58,6.267,38.745,-3.47518
45.66,476.08,5.977,36.953,-3.55094
45.71,476.58,5.692,35.191,-3.55539
45.76,477.08,5.407,33.424,-3.55241
45.81,477.58,5.115,31.62,-3.64218
45.86,478.08,4.817,29.78,-3.51707
45.91,478.58,4.535,28.038,-3.58805
45.96,479.08,4.247,26.258,-3.48999
46.01,479.58,3.964,24.504,-3.49606
46.06,480.08,3.682,22.763,-3.36765
46.11,480.58,3.41,21.081,-3.31456
46.16,481.081,3.141,19.417,-3.29503
46.21,481.581,2.877,17.786,-3.20918
46.26,482.081,2.631,16.266,-3.06265
46.31,482.581,2.385,14.742,-2.98276
46.36,483.081,2.148,13.277,-2.84265
46.41,483.581,1.922,11.881,-2.71013
46.46,484.081,1.714,10.599,-2.55489
46.51,484.581,1.513,9.356,-2.37832
46.56,485.081,1.326,8.197,-2.22668
46.61,485.581,1.159,7.165,-2.01245
46.66,486.081,1.001,6.188,-1.85005
46.7,486.582,0.8640000,5.34,-1.61695
46.75,487.082,0.7380000,4.564,-1.40612
46.8,487.582,0.6330000,3.913,-1.21797
46.85,488.082,0.5400000,3.337,-1.02758
46.9,488.582,0.4640000,2.87,-0.8649510
46.95,489.082,0.4020000,2.482,-0.7248310
47,489.582,0.3490000,2.159,-0.5824010
47.05,490.082,0.3070000,1.898,-0.4648810
47.1,490.582,0.2750000,1.698,-0.3544280
47.15,491.082,0.2480000,1.534,-0.2817700
47.2,491.582,0.2280000,1.407,-0.2146580
47.25,492.083,0.2120000,1.312,-0.1646000
47.3,492.583,0.2000000,1.239,-0.1215400
47.35,493.083,0.1920000,1.188,-0.0860170
47.4,493.583,0.1870000,1.153,-0.0553397
47.45,494.083,0.1830000,1.131,-0.0390871
47.5,494.583,0.1800000,1.111,-0.0402223
47.55,495.083,0.1770000,1.092,-0.0374086
47.6,495.583,0.1740000,1.074,-0.0329293
47.65,496.083,0.1710000,1.059,-0.0277482
47.7,496.583,0.1690000,1.047,-0.0232088
47.76,497.083,0.1680000,1.036,-0.0184688
47.81,497.583,0.1660000,1.028,-0.0150129
47.86,498.084,0.1650000,1.021,-0.0116710
47.91,498.584,0.1640000,1.016,-0.0094189
47.96,499.084,0.1640000,1.012,-0.0074444
48.01,499.584,0.1630000,1.008,-0.0059353
48.06,500.084,0.1630000,1.006,-0.0046303
48.11,500.584,0.1620000,1.004,-0.0037512
48.16,501.084,0.1620000,1.002,-0.0027903
48.21,501.584,0.1620000,1.001,-0.0027333
48.26,502.084,0.1620000,1,-0.0020103
48.31,502.584,0.1620000,0.9990000,-0.0015063
48.36,503.084,0.1610000,0.9980000,-0.0014549
48.41,503.585,0.1610000,0.9970000,-0.0016004
48.46,504.085,0.1610000,0.9970000,-0.0010355
48.51,504.585,0.1610000,0.9960000,-0.0009444
48.56,505.085,0.1610000,0.9960000,-0.0008844
48.61,505.585,0.1610000,0.9960000,0.0001279
48.66,506.085,0.1610000,0.9950000,-0.0006313
48.71,506.585,0.1610000,0.9950000,-0.0003636
48.76,507.085,0.1610000,0.9950000,-0.0003158
48.81,507.585,0.1610000,0.9950000,-0.0005090
48.86,508.085,0.1610000,0.9940000,-0.0005958
48.91,508.585,0.1610000,0.9940000,-0.0004379
48.96,509.086,0.1610000,0.9940000,-0.0001776
49.01,509.586,0.1610000,0.9940000,-0.0002969
49.06,510.086,0.1610000,0.9940000,-0.0001989
49.11,510.586,0.1610000,0.9940000,-0.0000986
49.16,511.086,0.1610000,0.9930000,-0.0003618
49.21,511.586,0.1610000,0.9930000,-0.0002714
49.26,512.086,0.1610000,0.9930000,-0.0002718
49.31,512.586,0.1610000,0.9930000,-0.0001304
49.36,513.086,0.1610000,0.9930000,-0.0001143
49.41,513.586,0.1610000,0.9930000,-0.0004051
49.46,514.086,0.1610000,0.9930000,-0.0001854
49.51,514.587,0.1610000,0.9920000,-0.0001513
49.56,515.087,0.1610000,0.9920000,-0.0004652
49.61,515.587,0.1600000,0.9920000,-0.0003881
49.66,516.087,0.1600000,0.9920000,-0.0005127
49.71,516.587,0.1600000,0.9920000,-0.0005705
49.76,517.087,0.1600000,0.9920000,-0.0000896
49.81,517.587,0.1600000,0.9910000,-0.0005935
49.86,518.087,0.1600000,0.9910000,-0.0000722
49.91,518.587,0.1600000,0.9910000,-0.0001367
49.96,519.087,0.1600000,0.9910000,-0.0002039
50.01,519.587,0.1600000,0.9910000,-0.0003553
50.06,520.088,0.1600000,0.9910000,-0.0004474
50.11,520.588,0.1600000,0.9910000,-0.0003742
50.16,521.088,0.1600000,0.9900000,0.0000085
50.21,521.588,0.1600000,0.9900000,-0.0002822
50.26,522.088,0.1600000,0.9900000,-0.0002061
50.31,522.588,0.1600000,0.9900000,-0.0002616
50.36,523.088,0.1600000,0.9900000,-0.0002076
50.41,523.588,0.1600000,0.9900000,-0.0004266
50.46,524.088,0.1600000,0.9890000,-0.0006650
50.51,524.588,0.1600000,0.9890000,-0.0005161
50.56,525.088,0.1600000,0.9890000,-0.0005392
50.61,525.588,0.1600000,0.9890000,-0.0005435
50.66,526.089,0.1600000,0.9890000,-0.0004167
50.71,526.589,0.1600000,0.9880000,-0.0005644
50.76,527.089,0.1600000,0.9880000,-0.0002811
50.81,527.589,0.1600000,0.9880000,-0.0004277
50.86,528.089,0.1600000,0.9880000,-0.0007518
50.91,528.589,0.1600000,0.9870000,-0.0006849
50.96,529.089,0.1600000,0.9870000,-0.0006764
51.01,529.589,0.1600000,0.9870000,-0.0003903
51.06,530.089,0.1600000,0.9870000,-0.0004056
51.11,530.589,0.1600000,0.9870000,-0.0001711
51.16,531.089,0.1600000,0.9860000,-0.0002333
51.21,531.59,0.1600000,0.9860000,-0.0001762
51.26,532.09,0.1600000,0.9860000,-0.0001794
51.31,532.59,0.1590000,0.9860000,-0.0003728
51.36,533.09,0.1590000,0.9860000,-0.0005229
51.41,533.59,0.1590000,0.9860000,-0.0005646
51.46,534.09,0.1590000,0.9850000,-0.0003071
51.51,534.59,0.1590000,0.9850000,-0.0005043
51.56,535.09,0.1590000,0.9850000,-0.0002730
51.61,535.59,0.1590000,0.9850000,-0.0004352
51.66,536.09,0.1590000,0.9850000,-0.0002974
51.71,536.59,0.1590000,0.9840000,-0.0004234
51.76,537.091,0.1590000,0.9840000,-0.0002951
51.81,537.591,0.1590000,0.9840000,-0.0003614
51.86,538.091,0.1590000,0.9840000,-0.0006925
51.91,538.591,0.1590000,0.9840000,-0.0003009
51.96,539.091,0.1590000,0.9830000,-0.0002437
52.01,539.591,0.1590000,0.9830000,-0.0005283
52.06,540.091,0.1590000,0.9830000,-0.0003988
52.11,540.591,0.1590000,0.9830000,-0.0000839
52.16,541.091,0.1590000,0.9820000,-0.0002144
52.21,541.591,0.1590000,0.9820000,-0.0006560
52.26,542.091,0.1590000,0.9820000,-0.0006069
52.31,542.592,0.1590000,0.9820000,-0.0005729
52.36,543.092,0.1590000,0.9820000,-0.0004914
52.41,543.592,0.1590000,0.9810000,-0.0004760
52.46,544.092,0.1590000,0.9810000,-0.0004756
52.51,544.592,0.1590000,0.9810000,-0.0003566
52.56,545.092,0.1590000,0.9810000,-0.0003383
52.61,545.592,0.1590000,0.9800000,-0.0006264
52.66,546.092,0.1590000,0.9800000,-0.0006596
52.71,546.592,0.1580000,0.9800000,-0.0006013
52.76,547.092,0.1580000,0.9800000,-0.0004189
52.81,547.592,0.1580000,0.9790000,-0.0005096
52.86,548.093,0.1580000,0.9790000,-0.0007937
52.91,548.593,0.1580000,0.9790000,-0.0004711
52.96,549.093,0.1580000,0.9780000,-0.0005062
53.01,549.593,0.1580000,0.9780000,-0.0004185
53.06,550.093,0.1580000,0.9780000,-0.0003301
53.11,550.593,0.1580000,0.9780000,-0.0004065
53.16,551.093,0.1580000,0.9780000,-0.0003682
53.21,551.593,0.1580000,0.9770000,-0.0002938
53.26,552.093,0.1580000,0.9770000,-0.0005749
53.31,552.593,0.1580000,0.9770000,-0.0005325
53.36,553.093,0.1580000,0.9770000,-0.0007044
53.4,553.593,0.1580000,0.9770000,-0.0003822
53.45,554.094,0.1580000,0.9760000,-0.0002411
53.5,554.594,0.1580000,0.9760000,-0.0004042
53.55,555.094,0.1580000,0.9760000,-0.0004570
53.6,555.594,0.1580000,0.9750000,-0.0005858
53.65,556.094,0.1580000,0.9750000,-0.0004644
53.7,556.594,0.1580000,0.9750000,-0.0005248
53.75,557.094,0.1580000,0.9750000,-0.0007050
53.8,557.594,0.1580000,0.9750000,-0.0005787
53.85,558.094,0.1580000,0.9740000,-0.0007831
53.9,558.594,0.1580000,0.9740000,-0.0007277
53.95,559.094,0.1570000,0.9740000,-0.0005202
54,559.595,0.1570000,0.9730000,-0.0002644
54.05,560.095,0.1570000,0.9730000,0.0002976
54.1,560.595,0.1570000,0.9730000,-0.0005355
54.15,561.095,0.1570000,0.9720000,-0.0007381
54.2,561.595,0.1570000,0.9720000,-0.0008926
54.25,562.095,0.1570000,0.9720000,-0.0008169
54.3,562.595,0.1570000,0.9710000,-0.0007419
54.35,563.095,0.1570000,0.9710000,-0.0006464
54.4,563.595,0.1570000,0.9710000,-0.0010602
54.45,564.095,0.1570000,0.9710000,-0.0005355
54.5,564.595,0.1570000,0.9700000,-0.0002679
54.55,565.096,0.1570000,0.9700000,-0.0004922
54.6,565.596,0.1570000,0.9700000,-0.0002990
54.65,566.096,0.1570000,0.9690000,-0.0005892
54.7,566.596,0.1570000,0.9690000,-0.0006221
54.75,567.096,0.1570000,0.9690000,-0.0004543
54.8,567.596,0.1570000,0.9690000,-0.0005011
54.85,568.096,0.1570000,0.9680000,-0.0009157
54.9,568.596,0.1570000,0.9680000,-0.0006839
54.95,569.096,0.1570000,0.9680000,-0.0003834
55,569.596,0.1570000,0.9680000,-0.0005656
55.05,570.096,0.1560000,0.9670000,-0.0003156
55.1,570.597,0.1560000,0.9670000,-0.0005556
55.15,571.097,0.1560000,0.9670000,-0.0006038
55.2,571.597,0.1560000,0.9660000,-0.0003927
55.25,572.097,0.1560000,0.9660000,-0.0006181
55.3,572.597,0.1560000,0.9660000,-0.0007482
55.35,573.097,0.1560000,0.9660000,-0.0007557
55.4,573.597,0.1560000,0.9650000,-0.0006744
55.45,574.097,0.1560000,0.9650000,-0.0005144
55.5,574.597,0.1560000,0.9650000,-0.0007034
55.55,575.097,0.1560000,0.9650000,-0.0006155
55.6,575.597,0.1560000,0.9640000,-0.0004570
55.65,576.098,0.1560000,0.9640000,-0.0006185
55.7,576.598,0.1560000,0.9640000,-0.0001438
55.75,577.098,0.1560000,0.9630000,-0.0005227
55.8,577.598,0.1560000,0.9630000,-0.0006653
55.85,578.098,0.1560000,0.9630000,-0.0006632
55.9,578.598,0.1560000,0.9620000,-0.0003898
55.95,579.098,0.1560000,0.9620000,-0.0013761
56,579.598,0.1560000,0.9620000,-0.0003653
56.05,580.098,0.1560000,0.9620000,-0.0007325
56.1,580.598,0.1560000,0.9610000,-0.0005392
56.15,581.098,0.1550000,0.9610000,-0.0003958
56.2,581.598,0.1550000,0.9610000,-0.0004497
56.25,582.099,0.1550000,0.9600000,-0.0006214
56.3,582.599,0.1550000,0.9600000,-0.0002007
56.35,583.099,0.1550000,0.9600000,-0.0008176
56.4,583.599,0.1550000,0.9600000,-0.0003373
56.45,584.099,0.1550000,0.9590000,-0.0008707
56.5,584.599,0.1550000,0.9590000,-0.0006402
56.55,585.099,0.1550000,0.9580000,-0.0008489
56.6,585.599,0.1550000,0.9580000,-0.0006346
56.65,586.099,0.1550000,0.9580000,-0.0008059
56.7,586.599,0.1550000,0.9570000,-0.0009783
56.75,587.099,0.1550000,0.9570000,-0.0010988
56.8,587.6,0.1550000,0.9560000,-0.0010442
56.85,588.1,0.1550000,0.9560000,-0.0007234
56.9,588.6,0.1550000,0.9560000,-0.0010189
56.95,589.1,0.1550000,0.9550000,-0.0009136
57,589.6,0.1540000,0.9550000,-0.0015180
57.04,590,0.1540000,0.9540000,-0.0006191